Folder: adsorptioninformationformat/example

Note: README.md
# Adsorption Information File

This repository contains the details of an universal file format for gas adsorption experiments.

## Core dictionary

The current dictionary of data items used by Adsorption Information Files can be
found in: [aifdictionary.json](/aifdictionary.json). Feel free to initiate a pull
request to add new terms.

## Developer specification

Development philosophy and steps can be found in [DEVELOPMENT.md](/DEVELOPMENT.md)

## Relevant Citations

[1] Jack D. Evans, Volodymyr Bon, Irena Senkovska, and Stefan Kaskel, ‘A Universal Standard Archive File for Adsorption Data’, *Langmuir*, **2021**.
[10.1021/acs.langmuir.1c00122](https://dx.doi.org/10.1021/acs.langmuir.1c00122)

[2] D. W. Siderius et al., ‘Best‐Practice Reporting for Porous Materials Adsorption Data’, *Angew Chem Int Ed*, **2025**.
[10.1002/anie.202513606](https://dx.doi.org/10.1002/anie.202513606)

File: Default Dataset.csv
0.00153083, 100.484
0.00156172, 132.781
0.00158918, 161.489
0.00161664, 190.197
0.00307539, 215.322
0.00310628, 247.619
0.00601177, 285.309
0.00606497, 340.931
0.00825482, 380.412
0.00900307, 412.712
0.0090374, 448.597
0.010503, 480.899
0.0119618, 506.024
0.0134274, 538.326
0.0134823, 595.742
0.019283, 660.356
0.0207692, 714.189
0.0323328, 803.944
0.0409686, 832.683
0.049601, 857.833
0.0568055, 890.156
0.0625719, 918.885
0.0712111, 951.212
0.0769775, 979.941
0.0798984, 1033.78
0.0871218, 1085.84
0.09434, 1132.52
0.102258, 1161.25
0.125238, 1186.45
0.148927, 1202.69
0.176197, 1213.55
0.203468, 1226.21
0.229295, 1228.1
0.255127, 1235.37
0.281675, 1240.84
0.306786, 1244.52
0.332616, 1250
0.357011, 1255.47
0.383552, 1253.77
0.409381, 1257.45
0.43449, 1259.33
0.458884, 1263.01
0.483995, 1266.69
0.509108, 1272.16
0.532781, 1272.25
0.560042, 1274.14
0.584436, 1277.81
0.609544, 1277.91
0.633932, 1276.2
0.658326, 1279.87
0.685586, 1279.97
0.710697, 1283.65
0.736522, 1283.74
0.760195, 1283.83
0.785308, 1289.3
0.811131, 1287.6
0.837674, 1287.7
0.861348, 1289.57
0.886456, 1289.66
0.911564, 1289.75
0.935952, 1288.05
0.962498, 1291.73
0.984736, 1291.81