Folder: adsorptioninformationformat/database/Ar_test

Note: README.md
# Adsorption Information File

This repository contains the details of an universal file format for gas adsorption experiments.

## Core dictionary

The current dictionary of data items used by Adsorption Information Files can be
found in: [aifdictionary.json](/aifdictionary.json). Feel free to initiate a pull
request to add new terms.

## Developer specification

Development philosophy and steps can be found in [DEVELOPMENT.md](/DEVELOPMENT.md)

## Relevant Citations

[1] Jack D. Evans, Volodymyr Bon, Irena Senkovska, and Stefan Kaskel, ‘A Universal Standard Archive File for Adsorption Data’, *Langmuir*, **2021**.
[10.1021/acs.langmuir.1c00122](https://dx.doi.org/10.1021/acs.langmuir.1c00122)

[2] D. W. Siderius et al., ‘Best‐Practice Reporting for Porous Materials Adsorption Data’, *Angew Chem Int Ed*, **2025**.
[10.1002/anie.202513606](https://dx.doi.org/10.1002/anie.202513606)

File: 1.DAT.aif
data_data_raw2aif
_exptl_operator Volodymyr
_exptl_date 2020-06-03
_exptl_instrument BELSORP-max-00218
_exptl_adsorptive Ar
_exptl_temperature 87.0
_exptl_sample_mass 0.1432
_sample_id OX
_sample_material_id unknown

loop_
_adsorp_pressure
_adsorp_p0
_adsorp_amount
0.12621 101300.0 4.5766e-06
0.36169 101300.0 0.00569733
0.51271 101300.0 0.0114817
0.65335 101300.0 0.0171683
0.79512 101300.0 0.0228143
0.93801 101300.0 0.0284594
1.0922 101300.0 0.0341215
2.0781 101300.0 0.0632908
4.7582 101300.0 0.130811
7.6859 101300.0 0.19843
10.666 101300.0 0.265709
30.263 101300.0 0.71491
48.555 101300.0 1.16271
65.348 101300.0 1.61007
75.344 101300.0 1.92714
84.489 101300.0 2.24378
93.028 101300.0 2.56166
100.88 101300.0 2.88123
108.69 101300.0 3.20559
126.49 101300.0 4.00147
141.31 101300.0 4.78406
154.5 101300.0 5.56483
167.73 101300.0 6.34737
181.49 101300.0 7.13081
197.07 101300.0 7.9147
215.56 101300.0 8.69769
240.65 101300.0 9.47577
277.23 101300.0 10.257
337.17 101300.0 11.0333
415.75 101300.0 11.6516
510.24 101300.0 12.1156
600.2 101300.0 12.4311
717.68 101300.0 12.7452
793.72 101300.0 12.908
877.04 101300.0 13.0704
968.78 101300.0 13.2319
1069.0 101300.0 13.393
1180.1 101300.0 13.5531
1281.4 101300.0 13.716
1407.6 101300.0 13.877
1550.1 101300.0 14.039
1700.7 101300.0 14.1951
1851.3 101300.0 14.3531
2042.6 101300.0 14.5083
2242.1 101300.0 14.6649
2486.3 101300.0 14.8184
2759.0 101300.0 14.9706
3068.4 101300.0 15.1182
3438.8 101300.0 15.2565
3886.6 101300.0 15.3953
4387.3 101300.0 15.522
4981.6 101300.0 15.6438
5673.6 101300.0 15.7589
6483.7 101300.0 15.8642
7395.5 101300.0 15.9597
8405.0 101300.0 16.0476
9552.9 101300.0 16.1279
10811.0 101300.0 16.2028
11885.0 101300.0 16.259
12789.0 101300.0 16.2992
13953.0 101300.0 16.3492
14955.0 101300.0 16.3875
15940.0 101300.0 16.4237
16966.0 101300.0 16.4585
18073.0 101300.0 16.4924
19241.0 101300.0 16.5272
20495.0 101300.0 16.5611
21875.0 101300.0 16.5977
23242.0 101300.0 16.6325
24777.0 101300.0 16.6655
26389.0 101300.0 16.7007
28111.0 101300.0 16.7378
29971.0 101300.0 16.7743
31941.0 101300.0 16.8118
34156.0 101300.0 16.8533
36700.0 101300.0 16.897
39448.0 101300.0 16.9434
42419.0 101300.0 16.9907
45602.0 101300.0 17.0438
49058.0 101300.0 17.104
52807.0 101300.0 17.1643
56833.0 101300.0 17.2299
59129.0 101300.0 17.2718
61388.0 101300.0 17.3088
63692.0 101300.0 17.3499
66082.0 101300.0 17.394
68561.0 101300.0 17.4395
71166.0 101300.0 17.4873
73812.0 101300.0 17.5408
76612.0 101300.0 17.5984
79466.0 101300.0 17.6666
82437.0 101300.0 17.7416
85499.0 101300.0 17.8277
88649.0 101300.0 17.9276
91918.0 101300.0 18.049
95252.0 101300.0 18.1953
98643.0 101300.0 18.3774
100630.0 101300.0 18.5232

loop_
_desorp_pressure
_desorp_p0
_desorp_amount
97678.0 101300.0 18.3983
97678.0 101300.0 18.3983
95533.0 101300.0 18.3091
95533.0 101300.0 18.3091
92048.0 101300.0 18.1949
92048.0 101300.0 18.1949
88421.0 101300.0 18.0927
88421.0 101300.0 18.0927
84916.0 101300.0 18.0057
84916.0 101300.0 18.0057
81546.0 101300.0 17.9325
81546.0 101300.0 17.9325
78359.0 101300.0 17.8656
78359.0 101300.0 17.8656
75289.0 101300.0 17.8112
75289.0 101300.0 17.8112
72326.0 101300.0 17.7603
72326.0 101300.0 17.7603
69513.0 101300.0 17.7104
69513.0 101300.0 17.7104
66782.0 101300.0 17.6698
66782.0 101300.0 17.6698
64156 101300.0 17.6305
64156 101300.0 17.6305
61645.0 101300.0 17.593
61645.0 101300.0 17.593
59235.0 101300.0 17.5587
59235.0 101300.0 17.5587
54867.0 101300.0 17.498
54867.0 101300.0 17.498
50662.0 101300.0 17.4373
50662.0 101300.0 17.4373
47495.0 101300.0 17.2959
47495.0 101300.0 17.2959
45517.0 101300.0 17.1701
45517.0 101300.0 17.1701
43225.0 101300.0 17.1067
43225.0 101300.0 17.1067
39875.0 101300.0 17.0434
39875.0 101300.0 17.0434
36720.0 101300.0 16.9876
36720.0 101300.0 16.9876
33814.0 101300.0 16.9381
33814.0 101300.0 16.9381
31152.0 101300.0 16.8903
31152.0 101300.0 16.8903
28685.0 101300.0 16.8453
28685.0 101300.0 16.8453
26405.0 101300.0 16.8007
26405.0 101300.0 16.8007
23462.0 101300.0 16.7382
23462.0 101300.0 16.7382
20735.0 101300.0 16.6744
20735.0 101300.0 16.6744
18284.0 101300.0 16.611
18284.0 101300.0 16.611
16115 101300.0 16.545
16115 101300.0 16.545
14185.0 101300.0 16.479
14185.0 101300.0 16.479
12081.0 101300.0 16.3947
12081.0 101300.0 16.3947
10229.0 101300.0 16.3023
10229.0 101300.0 16.3023
8645.2 101300.0 16.2033
8645.2 101300.0 16.2033
7497.3 101300.0 16.1163
7497.3 101300.0 16.1163
6585.4 101300.0 16.0284
6585.4 101300.0 16.0284
5718.4 101300.0 15.9226
5718.4 101300.0 15.9226
5014.2 101300.0 15.8182
5014.2 101300.0 15.8182
4379.2 101300.0 15.6964
4379.2 101300.0 15.6964
3866.3 101300.0 15.5755
3866.3 101300.0 15.5755
3471.4 101300.0 15.4595
3471.4 101300.0 15.4595
3162.0 101300.0 15.3516
3162.0 101300.0 15.3516
2913.7 101300.0 15.2494
2913.7 101300.0 15.2494
2710.2 101300.0 15.1526
2710.2 101300.0 15.1526
2254.3 101300.0 14.8965
2254.3 101300.0 14.8965
1867.6 101300.0 14.6118
1867.6 101300.0 14.6118
1249.0 101300.0 13.915
1249.0 101300.0 13.915
828.88 101300.0 13.2252
828.88 101300.0 13.2252
560.22 101300.0 12.5551
560.22 101300.0 12.5551
403.94 101300.0 11.8752
403.94 101300.0 11.8752
316.97 101300.0 11.201
316.97 101300.0 11.201
265.09 101300.0 10.5273
265.09 101300.0 10.5273
231.63 101300.0 9.85099
231.63 101300.0 9.85099