Folder: adsorptioninformationformat/database/DUT-32

Note: README.md
# Adsorption Information File

This repository contains the details of an universal file format for gas adsorption experiments.

## Core dictionary

The current dictionary of data items used by Adsorption Information Files can be
found in: [aifdictionary.json](/aifdictionary.json). Feel free to initiate a pull
request to add new terms.

## Developer specification

Development philosophy and steps can be found in [DEVELOPMENT.md](/DEVELOPMENT.md)

## Relevant Citations

[1] Jack D. Evans, Volodymyr Bon, Irena Senkovska, and Stefan Kaskel, ‘A Universal Standard Archive File for Adsorption Data’, *Langmuir*, **2021**.
[10.1021/acs.langmuir.1c00122](https://dx.doi.org/10.1021/acs.langmuir.1c00122)

[2] D. W. Siderius et al., ‘Best‐Practice Reporting for Porous Materials Adsorption Data’, *Angew Chem Int Ed*, **2025**.
[10.1002/anie.202513606](https://dx.doi.org/10.1002/anie.202513606)

File: RGE-343-DUT32-7dCO2_Nitrogen (BelMax).csv.aif
data_data_raw2aif
_exptl_operator irena

_exptl_date 2030-01-13 00:00:00
_exptl_instrument BELSORP-max-00218

_exptl_adsorptive N2

_exptl_temperature 77.0
_exptl_sample_mass 0.0184
_sample_id RGE-343_DUT-32-7d
_sample_material_id DUT-32

loop_
_adsorp_pressure
_adsorp_p0
_adsorp_amount
31.344 0.0 0.00222151
44.86 0.0 0.413135
51.619 0.0 0.830374
58.377 0.0 1.25002
68.619 0.0 3.37013
92.837 0.0 3.76002
113.0 0.0 4.1495
133.2 0.0 4.5418
161.5 0.0 4.9246
193.7 0.0 5.30606
218.0 0.0 5.70135
250.3 0.0 6.07745
274.5 0.0 6.46159
302.7 0.0 6.84572
339.1 0.0 7.22272
359.2 0.0 7.60819
391.5 0.0 7.98162
423.8 0.0 8.35728
460.1 0.0 8.73026
480.3 0.0 9.11082
520.7 0.0 9.50834
549.0 0.0 9.91568
581.2 0.0 10.3065
609.5 0.0 10.6853
641.8 0.0 11.0578
670.0 0.0 11.437
702.3 0.0 11.8234
738.7 0.0 12.2031
758.8 0.0 12.5917
787.1 0.0 12.9687
827.5 0.0 13.3363
851.7 0.0 13.7191
884.0 0.0 14.0934
916.3 0.0 14.4811
940.5 0.0 14.8653
976.8 0.0 15.2476
1001 0.0 15.6277
1033.3 0.0 16.0119
1069.6 0.0 16.3924
1101.9 0.0 16.7761
1134.2 0.0 17.1183
1162.5 0.0 17.4632
1198.8 0.0 17.7916
1235.1 0.0 18.132
1263.7 0.0 18.4648
1312.4 0.0 18.7829
1328.7 0.0 19.1309
1365.2 0.0 19.4619
1397.7 0.0 19.7925
1434.3 0.0 20.1334
1466.7 0.0 20.4618
1499.2 0.0 20.7946
1535.8 0.0 21.1212
1572.3 0.0 21.4549
1608.9 0.0 21.7721
1645.4 0.0 22.1076
1686.0 0.0 22.4257
1718.5 0.0 22.763
1763.2 0.0 23.0927
1799.7 0.0 23.4215
1840.3 0.0 23.7414
1881.0 0.0 24.0466
1921.6 0.0 24.3687
1958.1 0.0 24.6904
1998.7 0.0 25.0009
2043.4 0.0 25.3212
2079.9 0.0 25.6384
2128.7 0.0 25.9427
2173.3 0.0 26.2604
2209.9 0.0 26.5771
2254.6 0.0 26.881
2303.3 0.0 27.2013
2352.0 0.0 27.5172
2396.7 0.0 27.8228
2441.4 0.0 28.1458
2490.1 0.0 28.4639
2538.8 0.0 28.7677
2587.6 0.0 29.0671
2640.4 0.0 29.3857
2685.0 0.0 29.7002
2733.8 0.0 30.0071
2786.6 0.0 30.3043
2831.2 0.0 30.6032
2888.1 0.0 30.9244
2940.9 0.0 31.2622
2997.7 0.0 31.5687
3046.5 0.0 31.8662
3099.3 0.0 32.1634
3156.1 0.0 32.4752
3208.9 0.0 32.8009
3265.8 0.0 33.1387
3322.6 0.0 33.4554
3379.5 0.0 33.7552
3436.3 0.0 34.06
3493.2 0.0 34.358
3537.8 0.0 34.6663
3594.7 0.0 34.9688
3643.4 0.0 35.2757
3704.3 0.0 35.5992
3757.1 0.0 35.8994
3814.0 0.0 36.2073
3874.9 0.0 36.5249
3931.8 0.0 36.8386
3992.7 0.0 37.1491
4033.3 0.0 37.4672
4098.3 0.0 37.8081
4195.7 0.0 38.4148
4244.4 0.0 38.7347
4301.3 0.0 39.0403
4354.1 0.0 39.3821
4459.7 0.0 39.9996
4504.3 0.0 40.3012
4609.9 0.0 40.8905
4650.5 0.0 41.1921
4703.3 0.0 41.4991
4808.9 0.0 42.1197
4861.7 0.0 42.4458
4963.2 0.0 43.0592
5016.0 0.0 43.3635
5121.6 0.0 43.9636
5170.3 0.0 44.2728
5275.9 0.0 44.8693
5332.8 0.0 45.1682
5446.5 0.0 45.7571
5507.4 0.0 46.0516
5629.2 0.0 46.6405
5686.1 0.0 46.926
5759.2 0.0 47.2294
5889.1 0.0 47.8049
5954.1 0.0 48.0949
6031.3 0.0 48.3983
6173.4 0.0 48.9783
6242.4 0.0 49.2505
6323.7 0.0 49.536
6408.9 0.0 49.8305
7793.7 0.0 53.9484
7879.0 0.0 54.1893
7976.5 0.0 54.4615
8078 0.0 54.7515
8264.8 0.0 55.2913
8358.2 0.0 55.5635
8447.6 0.0 55.8579
8630.3 0.0 56.4201
8715.6 0.0 56.7101
8890.2 0.0 57.2722
8991.7 0.0 57.5578
9166.3 0.0 58.1199
9259.8 0.0 58.4144
9462.8 0.0 58.9587
9572.4 0.0 59.2398
9690.2 0.0 59.5298
9946.1 0.0 60.0607
10052.0 0.0 60.315
10173.0 0.0 60.5871
10344.0 0.0 60.8637
10494.0 0.0 61.1537
10665.0 0.0 61.4259
10827.0 0.0 61.707
10982.0 0.0 61.9747
11172.0 0.0 62.2468
11335.0 0.0 62.5145
11510.0 0.0 62.7911
11692.0 0.0 63.0588
11855.0 0.0 63.3488
12046.0 0.0 63.6343
12216.0 0.0 63.9154
12415.0 0.0 64.2009
12610.0 0.0 64.4865
12777.0 0.0 64.7943
12971.0 0.0 65.0932
13170.0 0.0 65.4056
13402.0 0.0 65.8517
13577.0 0.0 66.1685
13792.0 0.0 66.6414
14019.0 0.0 67.1009
14218.0 0.0 67.5828
14433.0 0.0 68.0824
14701.0 0.0 68.6892
14876.0 0.0 69.0104
15112.0 0.0 69.5235
15355.0 0.0 70.0054
15635.0 0.0 70.563
15855.0 0.0 71.0137
16062 0.0 71.5089
16306 0.0 72.0086
16574.0 0.0 72.6912
16821.0 0.0 73.3961
17118.0 0.0 74.1679
17382.0 0.0 74.7479
17650.0 0.0 75.1985
17877.0 0.0 75.5153
18190.0 0.0 75.8945
18450.0 0.0 76.2113
18775.0 0.0 76.5905
19014.0 0.0 76.9073
19351.0 0.0 77.3579
19664.0 0.0 77.8531
19956.0 0.0 78.5714
20228.0 0.0 80.1731
20541.0 0.0 82.6537
20890.0 0.0 84.7328
21215.0 0.0 85.6251
21532.0 0.0 85.9998
21930.0 0.0 86.2363
22214.0 0.0 86.3523
22555.0 0.0 86.4504
22913.0 0.0 86.562
23262.0 0.0 86.669
23623.0 0.0 86.7761
24021.0 0.0 86.8654
24375.0 0.0 86.9635
24756.0 0.0 87.0483
25122.0 0.0 87.1553
25512.0 0.0 87.258
25910.0 0.0 87.3561
26324.0 0.0 87.4453
26738.0 0.0 87.5212
27140.0 0.0 87.6193
27575.0 0.0 87.6907
27989.0 0.0 87.771
28428.0 0.0 87.8558
28850.0 0.0 87.945
29313.0 0.0 88.0253
29768.0 0.0 88.1101
30218.0 0.0 88.1949
30702.0 0.0 88.2663
31173.0 0.0 88.3555
31664.0 0.0 88.4358
32156.0 0.0 88.5116
32635 0.0 88.5964
33142.0 0.0 88.6767
33654.0 0.0 88.7436
34162.0 0.0 88.815
34698.0 0.0 88.8819
35242.0 0.0 88.9623
35786.0 0.0 89.0381
36355.0 0.0 89.1006
36903.0 0.0 89.1809
37471.0 0.0 89.2433
38044.0 0.0 89.3192
38645.0 0.0 89.3906
39250.0 0.0 89.453
39847.0 0.0 89.5244
40476.0 0.0 89.5958
41098.0 0.0 89.6761
41752.0 0.0 89.7341
42377.0 0.0 89.801
43031.0 0.0 89.8635
43717.0 0.0 89.917
44387.0 0.0 89.9884
45065.0 0.0 90.0464
45760.0 0.0 90.1222
46470.0 0.0 90.1847
47206.0 0.0 90.2338
47965.0 0.0 90.2784
48696.0 0.0 90.323
49459.0 0.0 90.3542
50263.0 0.0 90.3721
50929.0 0.0 90.4479
51843.0 0.0 90.4435
52688.0 0.0 90.4256
53683.0 0.0 90.3186
55230.0 0.0 89.6627
56655.0 0.0 89.2523
62816.0 0.0 86.504
65699.0 0.0 84.8621
66727.0 0.0 84.6034
67502.0 0.0 84.5052
68522.0 0.0 84.3803
69675.0 0.0 84.2241
70751.0 0.0 84.2197
72051.0 0.0 83.9788
72952.0 0.0 83.8181
73996.0 0.0 83.8003
75385.0 0.0 83.6709
76497.0 0.0 83.43
77557.0 0.0 83.2828
78508.0 0.0 83.1846
79750.0 0.0 83.1088
81037.0 0.0 82.9928
82414.0 0.0 82.8634
84193.0 0.0 82.4172
85200.0 0.0 82.0871
86430.0 0.0 81.8149
87547.0 0.0 81.6632
88977.0 0.0 81.516
90552.0 0.0 81.226
91856.0 0.0 80.9494
93488.0 0.0 80.5523
95190.0 0.0 79.9411
96120.0 0.0 79.6779
97911.0 0.0 79.205
99442.0 0.0 78.7142
100510.0 0.0 73.1686
101400.0 0.0 68.1806

loop_
_desorp_pressure
_desorp_p0
_desorp_amount
100280.0 0.0 63.1748
97395.0 0.0 58.3341