Folder: adsorptioninformationformat/database/DUT-67

Note: README.md
# Adsorption Information File

This repository contains the details of an universal file format for gas adsorption experiments.

## Core dictionary

The current dictionary of data items used by Adsorption Information Files can be
found in: [aifdictionary.json](/aifdictionary.json). Feel free to initiate a pull
request to add new terms.

## Developer specification

Development philosophy and steps can be found in [DEVELOPMENT.md](/DEVELOPMENT.md)

## Relevant Citations

[1] Jack D. Evans, Volodymyr Bon, Irena Senkovska, and Stefan Kaskel, ‘A Universal Standard Archive File for Adsorption Data’, *Langmuir*, **2021**.
[10.1021/acs.langmuir.1c00122](https://dx.doi.org/10.1021/acs.langmuir.1c00122)

[2] D. W. Siderius et al., ‘Best‐Practice Reporting for Porous Materials Adsorption Data’, *Angew Chem Int Ed*, **2025**.
[10.1002/anie.202513606](https://dx.doi.org/10.1002/anie.202513606)

File: DUT67_1_Garching_acetone_298K.DAT.aif
data_data_raw2aif
_exptl_operator Volodymyr
_exptl_date 2017-05-19T00:00:00
_exptl_instrument 'BEL 00348'
_exptl_adsorptive Acetone
_exptl_temperature 298.00
_exptl_sample_mass 0.08570
_sample_id 'DUT-67Zr_acetone'
_sample_material_id DUT-67
_units_temperature K
_units_pressure kPa
_units_mass g
_units_loading cm3(STP)/g

loop_
_adsorp_pressure
_adsorp_p0
_adsorp_loading
5.7686 30500.0 0.457973
41.827 30500.0 1.04778
211.67 30500.0 1.70679
488.25 30500.0 2.2792
645.22 30500.0 2.78273
738.88 30500.0 3.26698
839.79 30500.0 3.72165
1182.2 30500.0 4.31106
1902.2 30500.0 4.70019
2556.0 30500.0 4.86437
3386.6 30500.0 4.99598
4241.7 30500.0 5.09235
6065.6 30500.0 5.25341
8136.3 30500.0 5.40823
10178.0 30500.0 5.56349
12358.0 30500.0 5.74685
14403.0 30500.0 5.93602
16114.0 30500.0 6.18051
18078.0 30500.0 6.42456
20127.0 30500.0 6.70518
21922.0 30500.0 6.95681
23631.0 30500.0 7.18435
26017.0 30500.0 7.45962
28376.0 30500.0 7.70501

loop_
_desorp_pressure
_desorp_p0
_desorp_loading
25298.0 30500.0 7.52432
22532.0 30500.0 7.36415
20263.0 30500.0 7.18881
18341.0 30500.0 7.03177
16514.0 30500.0 6.88855
14780.0 30500.0 6.75471
13065.0 30500.0 6.62666
11385.0 30500.0 6.49996
9993.2 30500.0 6.396
8452.7 30500.0 6.27643
7162.2 30500.0 6.17248
6076.6 30500.0 6.06541
4633.6 30500.0 5.87981
3835.9 30500.0 5.76961
2882.1 30500.0 5.63086
2227.9 30500.0 5.50326
1808.3 30500.0 5.38369
1353.7 30500.0 5.18649
936.6 30500.0 4.8086
897.95 30500.0 4.74346
724.4 30500.0 4.26608
622.68 30500.0 3.77929
508.26 30500.0 3.29963
328.62 30500.0 2.83336
313.44 30500.0 2.79464

File: DUT67_1_Garching_EtOH_298K.DAT.aif
data_data_raw2aif
_exptl_operator Volodymyr
_exptl_date 2017-05-18T00:00:00
_exptl_instrument 'BEL 00348'
_exptl_adsorptive EtOH
_exptl_temperature 298.00
_exptl_sample_mass 0.08570
_sample_id 'DUT-67Zr_EtOH'
_sample_material_id DUT-67
_units_temperature K
_units_pressure kPa
_units_mass g
_units_loading cm3(STP)/g

loop_
_adsorp_pressure
_adsorp_p0
_adsorp_loading
16.554 7890.0 1.48604
130.67 7890.0 2.94637
326.89 7890.0 3.92536
466.54 7890.0 4.93308
663.88 7890.0 6.45802
958.83 7890.0 6.947
1786.3 7890.0 7.38779
3183.8 7890.0 7.7407
5372.0 7890.0 7.99857
6990.6 7890.0 8.15294
7672.1 7890.0 8.34478

loop_
_desorp_pressure
_desorp_p0
_desorp_loading
5671.2 7890.0 8.04453
3713.1 7890.0 7.85937
2750.8 7890.0 7.69385
2177.9 7890.0 7.55376
1792.4 7890.0 7.43553
1510.3 7890.0 7.33604
1318.4 7890.0 7.24904
1175.8 7890.0 7.17007
1064.4 7890.0 7.09958
856.77 7890.0 6.91621
674.18 7890.0 6.62265
490.79 7890.0 5.61703
480.33 7890.0 5.49121
320.65 7890.0 4.13492
283.04 7890.0 3.85429
280.65 7890.0 3.83698
91.149 7890.0 2.85438
82.325 7890.0 2.79718

File: DUT67_1_Garching_hexane_298K.DAT.aif
data_data_raw2aif
_exptl_operator Volodymyr
_exptl_date 2017-05-19T00:00:00
_exptl_instrument 'BEL 00348'
_exptl_adsorptive Hexane
_exptl_temperature 298.00
_exptl_sample_mass 0.03520
_sample_id 'DUT-67Zr_hexane'
_sample_material_id DUT-67
_units_temperature K
_units_pressure kPa
_units_mass g
_units_loading cm3(STP)/g

loop_
_adsorp_pressure
_adsorp_p0
_adsorp_loading
30.979 20000.0 0.926831
357.7 20000.0 2.61319
1251.2 20000.0 2.85531
2773.9 20000.0 2.98684
4542.2 20000.0 3.05358
7144.7 20000.0 3.11007
10209.0 20000.0 3.15437
13357.0 20000.0 3.19006
16977.0 20000.0 3.23887
19478.0 20000.0 3.91706

loop_
_desorp_pressure
_desorp_p0
_desorp_loading
17747.0 20000.0 3.25431
14416.0 20000.0 3.19256
11488.0 20000.0 3.15464
8627.9 20000.0 3.11555
6111.2 20000.0 3.07317
3981.9 20000.0 3.01419
2233.6 20000.0 2.93125
1226.4 20000.0 2.83042
763.02 20000.0 2.74998
540.17 20000.0 2.68466
216.31 20000.0 2.44771
200.99 20000.0 2.42014

File: DUT67_1_Garching_isopropanol_298K.DAT.aif
data_data_raw2aif
_exptl_operator Volodymyr
_exptl_date 2017-05-22T00:00:00
_exptl_instrument 'BEL 00348'
_exptl_adsorptive Isopropanol
_exptl_temperature 298.00
_exptl_sample_mass 0.03520
_sample_id 'DUT-67Zr_acetone'
_sample_material_id DUT-67
_units_temperature K
_units_pressure kPa
_units_mass g
_units_loading cm3(STP)/g

loop_
_adsorp_pressure
_adsorp_p0
_adsorp_loading
3.7424 6000.0 0.448693
6.9999 6000.0 1.03846
11.728 6000.0 1.57933
26.675 6000.0 2.11189
91.476 6000.0 2.61167
150.89 6000.0 2.90899
185.68 6000.0 3.43223
203.4 6000.0 3.93977
227.54 6000.0 4.4292
329.08 6000.0 4.97368
404.02 6000.0 5.12358
531.41 6000.0 5.27572
726.81 6000.0 5.41001
1016.0 6000.0 5.53449
1382.2 6000.0 5.65852
1822.5 6000.0 5.75845
2358.8 6000.0 5.83921
3000.8 6000.0 5.90702
3740.4 6000.0 5.96948
4475.5 6000.0 6.02927
5203.7 6000.0 6.12608
5546.0 6000.0 6.49326

loop_
_desorp_pressure
_desorp_p0
_desorp_loading
5361.4 6000.0 6.20193
4650.3 6000.0 6.05916
3797.7 6000.0 5.98778
3010.6 6000.0 5.92755
2360.4 6000.0 5.86598
1876.2 6000.0 5.78701
1454.6 6000.0 5.70135
1100.5 6000.0 5.58981
813.54 6000.0 5.48229
645.06 6000.0 5.39306
537.09 6000.0 5.31632
416.68 6000.0 5.18828
295.49 6000.0 4.94379
217.03 6000.0 4.47756
194.02 6000.0 4.02962
182.85 6000.0 3.69537
165.13 6000.0 3.23869
114.89 6000.0 2.78821
63.146 6000.0 2.55577
60.712 6000.0 2.54051

File: DUT67_1_Garching_toluol_298K.DAT.aif
data_data_raw2aif
_exptl_operator Volodymyr
_exptl_date 2017-05-16
_exptl_instrument BELSORP-max-00348
_exptl_adsorptive Toluene
_exptl_temperature 298.0
_exptl_sample_mass 0.0857
_sample_id DUT-67Zr_toluol
_sample_material_id DUT-67

loop_
_adsorp_pressure
_adsorp_p0
_adsorp_amount
43.789 3770.0 1.46877
77.712 3770.0 2.93473
124.3 3770.0 3.42179
389.96 3770.0 3.87753
1511.9 3770.0 4.1935
3119.5 3770.0 4.34688
3819.2 3770.0 4.5311

loop_
_desorp_pressure
_desorp_p0
_desorp_amount
2815.0 3770.0 4.34621
2815.0 3770.0 4.34621
1748.1 3770.0 4.26448
1748.1 3770.0 4.26448
1179.9 3770.0 4.20559
1179.9 3770.0 4.20559
864.57 3770.0 4.15959
864.57 3770.0 4.15959
680.76 3770.0 4.1222
680.76 3770.0 4.1222
579.57 3770.0 4.0895
579.57 3770.0 4.0895
512.86 3770.0 4.06019
512.86 3770.0 4.06019
402.66 3770.0 4.01258
402.66 3770.0 4.01258
306.68 3770.0 3.95659
306.68 3770.0 3.95659
224.81 3770.0 3.88703
224.81 3770.0 3.88703
134.55 3770.0 3.7697
134.55 3770.0 3.7697
42.601 3770.0 3.41862
42.601 3770.0 3.41862

File: DUT67_1_Garching_wasser_298K.DAT.aif
data_data_raw2aif
_exptl_operator Volodymyr
_exptl_date 2017-05-23
_exptl_instrument BELSORP-max-00348
_exptl_adsorptive H2O
_exptl_temperature 298.0
_exptl_sample_mass 0.0857
_sample_id DUT-67Zr_wasser
_sample_material_id DUT-67

loop_
_adsorp_pressure
_adsorp_p0
_adsorp_amount
6.7106 3140.0 0.162269
61.107 3140.0 0.660659
121.28 3140.0 1.15709
159.38 3140.0 1.66048
192.69 3140.0 2.15281
238.96 3140.0 2.6558
307.44 3140.0 3.15963
386.89 3140.0 3.65865
442.31 3140.0 3.99295
500.88 3140.0 4.32895
563.85 3140.0 4.66806
597.09 3140.0 4.83983
672.16 3140.0 5.18381
712.23 3140.0 5.35781
801.67 3140.0 5.70402
847.19 3140.0 5.87981
890.3 3140.0 6.05827
947.79 3140.0 6.60212
967.77 3140.0 7.16427
979.4 3140.0 7.72196
988.14 3140.0 8.27162
996.68 3140.0 8.84403
1004.4 3140.0 9.41867
1012.0 3140.0 9.98528
1020.0 3140.0 10.5465
1029.6 3140.0 11.1069
1041.7 3140.0 11.6588
1056.8 3140.0 12.2049
1084.9 3140.0 12.7688
1131.1 3140.0 13.1329
1205.8 3140.0 13.5
1237.7 3140.0 13.8757
1262.5 3140.0 14.4646
1269.5 3140.0 15.0344
1294.3 3140.0 15.5978
1315.5 3140.0 16.1787
1339.5 3140.0 16.7784
1359.4 3140.0 17.3682
1383.0 3140.0 17.9508
1407.0 3140.0 18.5215
1431.8 3140.0 19.105
1461.9 3140.0 19.6632
1495.2 3140.0 20.2476
1526.1 3140.0 20.6291
1596.8 3140.0 21.2077
1642.4 3140.0 21.3996
1714.8 3140.0 21.5901
1791.6 3140.0 21.7828
1856.2 3140.0 21.9702
1926.2 3140.0 22.1553
2010.7 3140.0 22.3325
2105.9 3140.0 22.5007
2205.1 3140.0 22.6604
2310.0 3140.0 22.8116
2422.2 3140.0 22.9553
2533.6 3140.0 23.0887
2655.2 3140.0 23.21
2775.9 3140.0 23.3225
2893.8 3140.0 23.4255

loop_
_desorp_pressure
_desorp_p0
_desorp_amount
2579.2 3140.0 23.2538
2579.2 3140.0 23.2538
2336.0 3140.0 23.0789
2336.0 3140.0 23.0789
2142.5 3140.0 22.9129
2142.5 3140.0 22.9129
1983.5 3140.0 22.7581
1983.5 3140.0 22.7581
1854.2 3140.0 22.6135
1854.2 3140.0 22.6135
1746.1 3140.0 22.4775
1746.1 3140.0 22.4775
1654.6 3140.0 22.349
1654.6 3140.0 22.349
1544.4 3140.0 22.0991
1544.4 3140.0 22.0991
1465.5 3140.0 21.6124
1465.5 3140.0 21.6124
1424.9 3140.0 21.1453
1424.9 3140.0 21.1453
1394.8 3140.0 20.6933
1394.8 3140.0 20.6933
1366.3 3140.0 20.2445
1366.3 3140.0 20.2445
1337.9 3140.0 19.7051
1337.9 3140.0 19.7051
1312.6 3140.0 19.1764
1312.6 3140.0 19.1764
1308.4 3140.0 18.6575
1308.4 3140.0 18.6575
1296.3 3140.0 18.2457
1296.3 3140.0 18.2457
1279.3 3140.0 17.7353
1279.3 3140.0 17.7353
1264.2 3140.0 17.2379
1264.2 3140.0 17.2379
1249.6 3140.0 16.7413
1249.6 3140.0 16.7413
1235.7 3140.0 16.2568
1235.7 3140.0 16.2568
1232.2 3140.0 16.0605
1232.2 3140.0 16.0605
1216.8 3140.0 15.5845
1216.8 3140.0 15.5845
1203.0 3140.0 15.1151
1203.0 3140.0 15.1151
1188.3 3140.0 14.6524
1188.3 3140.0 14.6524
1167.9 3140.0 14.1969
1167.9 3140.0 14.1969
1098.8 3140.0 13.6785
1098.8 3140.0 13.6785
1040.3 3140.0 13.2747
1040.3 3140.0 13.2747
1013.2 3140.0 12.8058
1013.2 3140.0 12.8058
999.01 3140.0 12.3436
999.01 3140.0 12.3436
988.97 3140.0 11.8872
988.97 3140.0 11.8872
981.88 3140.0 11.4348
981.88 3140.0 11.4348
981.17 3140.0 11.3594
981.17 3140.0 11.3594
972.28 3140.0 10.837
972.28 3140.0 10.837
965.29 3140.0 10.3181
965.29 3140.0 10.3181
958.98 3140.0 9.80369
958.98 3140.0 9.80369
952.96 3140.0 9.29374
952.96 3140.0 9.29374
947.19 3140.0 8.78558
947.19 3140.0 8.78558
940.54 3140.0 8.28054
940.54 3140.0 8.28054
932.58 3140.0 7.78219
932.58 3140.0 7.78219
921.36 3140.0 7.29232
921.36 3140.0 7.29232
915.53 3140.0 7.08397
915.53 3140.0 7.08397
876.0 3140.0 6.61595
876.0 3140.0 6.61595
851.51 3140.0 6.48791
851.51 3140.0 6.48791
787.51 3140.0 6.24877
787.51 3140.0 6.24877
723.38 3140.0 6.02748
723.38 3140.0 6.02748
655.19 3140.0 5.77898
655.19 3140.0 5.77898
597.74 3140.0 5.55456
597.74 3140.0 5.55456
534.36 3140.0 5.27304
534.36 3140.0 5.27304
476.34 3140.0 4.98572
476.34 3140.0 4.98572
470.82 3140.0 4.95226
470.82 3140.0 4.95226
410.47 3140.0 4.61096
410.47 3140.0 4.61096
349.2 3140.0 4.24007
349.2 3140.0 4.24007
284.92 3140.0 3.82301
284.92 3140.0 3.82301
225.38 3140.0 3.37361
225.38 3140.0 3.37361
221.18 3140.0 3.32788
221.18 3140.0 3.32788
182.51 3140.0 2.86932
182.51 3140.0 2.86932
159.21 3140.0 2.47827
159.21 3140.0 2.47827
132.31 3140.0 2.03163
132.31 3140.0 2.03163
96.85 3140.0 1.63135
96.85 3140.0 1.63135
94.334 3140.0 1.60699
94.334 3140.0 1.60699
34.193 3140.0 1.19207
34.193 3140.0 1.19207
31.327 3140.0 1.17007
31.327 3140.0 1.17007

File: DUT-67-N2_77K.DAT.aif
data_data_raw2aif
_exptl_operator Simon
_exptl_date 2016-03-05
_exptl_instrument BELSORP-max-00218
_exptl_adsorptive N2
_exptl_temperature 77.0
_exptl_sample_mass 0.0387
_sample_id DUT67Zr
_sample_material_id DUT-67

loop_
_adsorp_pressure
_adsorp_p0
_adsorp_amount
-3.3975 100010.0 1.03605
-3.3975 100030.0 2.06148
-6.795 99969.0 3.08878
-4.0983e-16 99847.0 4.12648
14.87 99753.0 5.15035
26.983 99717.0 6.1533
43.134 99668.0 7.13929
91.586 99607.0 8.09226
176.38 99534.0 8.96627
523.62 99522.0 10.4243
1238.3 99538.0 11.5803
2916.0 99493.0 12.2191
5548.4 99448.0 12.5703
7957.5 99481.0 12.7514
10618.0 99518.0 12.8826
12576.0 99485.0 12.9557
15002.0 99485.0 13.0285
17589.0 99501.0 13.0927
20222.0 99481.0 13.1503
22810.0 99440.0 13.1993
25414.0 99448.0 13.2413
27993.0 99452.0 13.2792
30569.0 99481.0 13.3131
33153.0 99485.0 13.343
35712.0 99436.0 13.3658
38263.0 99526.0 13.3916
40855.0 99493.0 13.4193
43390.0 99489.0 13.4394
45933.0 99489.0 13.4617
48484.0 99457.0 13.4804
51007.0 99448.0 13.4987
53546.0 99461.0 13.5143
56089.0 99461.0 13.5344
58628.0 99457.0 13.5527
61167.0 99440.0 13.5683
63698.0 99477.0 13.5812
66249.0 99481.0 13.5951
68804.0 99469.0 13.6089
71331.0 99457.0 13.6259
73850.0 99481.0 13.6459
76381.0 99469.0 13.6504
78908.0 99473.0 13.662
81451.0 99473.0 13.6745
83982.0 99448.0 13.6879
86488.0 99457.0 13.7022
89023.0 99448.0 13.7169
91542.0 99448.0 13.7303
94040.0 99436.0 13.749
98338.0 99444.0 13.9404

loop_
_desorp_pressure
_desorp_p0
_desorp_amount
93971.0 99432.0 13.7593
93971.0 99432.0 13.7593
90920.0 99440.0 13.7196
90920.0 99440.0 13.7196
86151.0 99416.0 13.6946
86151.0 99416.0 13.6946
83539.0 99420.0 13.6843
83539.0 99420.0 13.6843
81073.0 99440.0 13.6665
81073.0 99440.0 13.6665
78636.0 99428.0 13.6482
78636.0 99428.0 13.6482
76198.0 99432.0 13.6348
76198.0 99432.0 13.6348
73753.0 99400.0 13.6196
73753.0 99400.0 13.6196
71287.0 99387.0 13.6098
71287.0 99387.0 13.6098
68853.0 99404.0 13.5946
68853.0 99404.0 13.5946
66416.0 99416.0 13.5812
66416.0 99416.0 13.5812
63995.0 99424.0 13.5696
63995.0 99424.0 13.5696
61569.0 99424.0 13.5482
61569.0 99424.0 13.5482
59132.0 99428.0 13.5335
59132.0 99428.0 13.5335
56694.0 99440.0 13.5174
56694.0 99440.0 13.5174
54269.0 99432.0 13.5005
54269.0 99432.0 13.5005
51832.0 99396.0 13.4853
51832.0 99396.0 13.4853
49386.0 99416.0 13.4621
49386.0 99416.0 13.4621
46977.0 99383.0 13.4407
46977.0 99383.0 13.4407
44527.0 99363.0 13.4242
44527.0 99363.0 13.4242
42106.0 99379.0 13.401
42106.0 99379.0 13.401
39677.0 99343.0 13.3845
39677.0 99343.0 13.3845
37235.0 99168.0 13.3555
37235.0 99168.0 13.3555
34794.0 99119.0 13.326
34794.0 99119.0 13.326
32365 99127.0 13.2966
32365 99127.0 13.2966
29960.0 99148.0 13.2663
29960.0 99148.0 13.2663
27555.0 99115.0 13.235
27555.0 99115.0 13.235
25170.0 99127.0 13.1984
25170.0 99127.0 13.1984
22761.0 99058.0 13.1574
22761.0 99058.0 13.1574
20384.0 99046.0 13.1146
20384.0 99046.0 13.1146
18008.0 99103.0 13.0633
18008.0 99103.0 13.0633
15660.0 99066.0 13.0066
15660.0 99066.0 13.0066
13344.0 99099.0 12.9374
13344.0 99099.0 12.9374
10273.0 99013.0 12.8273
10273.0 99013.0 12.8273
7835.6 99050.0 12.7063
7835.6 99050.0 12.7063
5593.1 99038.0 12.5359
5593.1 99038.0 12.5359
1226.2 98965.0 11.5227
1226.2 98965.0 11.5227

File: DUT-67_H2O_298K.DAT.aif
data_data_raw2aif
_exptl_operator Claudi
_exptl_date 2017-01-16
_exptl_instrument BELSORP-max-00348
_exptl_adsorptive H2O
_exptl_temperature 298.15
_exptl_sample_mass 0.0374
_sample_id arching
_sample_material_id DUT-67

loop_
_adsorp_pressure
_adsorp_p0
_adsorp_amount
24.284 3140.0 0.207058
66.971 3140.0 0.401111
124.86 3140.0 0.78393
153.5 3140.0 1.17681
181.46 3140.0 1.78063
199.87 3140.0 2.16342
245.8 3140.0 2.74788
297.18 3140.0 3.12559
327.71 3140.0 3.31868
393.73 3140.0 3.70228
429.07 3140.0 3.89306
466.34 3140.0 4.08075
505.33 3140.0 4.26952
544.44 3140.0 4.46025
585.22 3140.0 4.652
671.89 3140.0 5.01918
721.92 3140.0 5.21058
775.0 3140.0 5.39752
827.62 3140.0 5.58446
872.83 3140.0 5.77407
895.32 3140.0 5.97573
919.44 3140.0 6.59409
930.27 3140.0 7.25395
937.21 3140.0 7.90979
942.31 3140.0 8.55581
946.33 3140.0 9.19693
950.39 3140.0 9.83582
954.35 3140.0 10.4774
958.09 3140.0 11.1015
962.44 3140.0 11.7253
968.75 3140.0 12.3829
977.47 3140.0 13.0294
1005.5 3140.0 13.6495
1076.9 3140.0 14.0515
1100.6 3140.0 14.2603
1131.3 3140.0 14.9157
1140.7 3140.0 15.3391
1148.9 3140.0 15.7875
1160.5 3140.0 16.4504
1171.6 3140.0 17.1023
1182.5 3140.0 17.7398
1190.6 3140.0 18.1886
1203.0 3140.0 18.8556
1216.1 3140.0 19.503
1230.6 3140.0 20.1325
1248.2 3140.0 20.791
1269.1 3140.0 21.4272
1297.8 3140.0 22.067
1311.2 3140.0 22.2727
1359.6 3140.0 22.6876
1444.9 3140.0 23.0798
1497.8 3140.0 23.277
1552.3 3140.0 23.471
1612.5 3140.0 23.6602
1664.9 3140.0 23.8587
1713.7 3140.0 24.0551
1767.4 3140.0 24.2451
1830.8 3140.0 24.4325
1906.0 3140.0 24.6248
1985.3 3140.0 24.8015
2068.3 3140.0 24.979
2166.7 3140.0 25.1548
2277.3 3140.0 25.3235
2405.3 3140.0 25.4912
2552.9 3140.0 25.6532
2696.5 3140.0 25.8129
2856.2 3140.0 25.9842
2989.6 3140.0 26.1805

loop_
_desorp_pressure
_desorp_p0
_desorp_amount
2838.4 3140.0 26.0052
2838.4 3140.0 26.0052
2674.9 3140.0 25.8432
2674.9 3140.0 25.8432
2511.5 3140.0 25.6839
2511.5 3140.0 25.6839
2348.4 3140.0 25.5211
2348.4 3140.0 25.5211
2198.4 3140.0 25.3654
2198.4 3140.0 25.3654
2055.2 3140.0 25.2021
2055.2 3140.0 25.2021
1926.4 3140.0 25.0379
1926.4 3140.0 25.0379
1801.9 3140.0 24.8715
1801.9 3140.0 24.8715
1682.8 3140.0 24.7006
1682.8 3140.0 24.7006
1573.8 3140.0 24.5222
1573.8 3140.0 24.5222
1478.7 3140.0 24.3482
1478.7 3140.0 24.3482
1388.0 3140.0 24.1742
1388.0 3140.0 24.1742
1302.7 3140.0 23.8106
1302.7 3140.0 23.8106
1286.3 3140.0 23.6067
1286.3 3140.0 23.6067
1259.6 3140.0 22.97
1259.6 3140.0 22.97
1248.7 3140.0 22.5529
1248.7 3140.0 22.5529
1232.8 3140.0 21.9019
1232.8 3140.0 21.9019
1219.7 3140.0 21.2599
1219.7 3140.0 21.2599
1207.1 3140.0 20.6335
1207.1 3140.0 20.6335
1194.7 3140.0 19.9777
1194.7 3140.0 19.9777
1183.6 3140.0 19.3326
1183.6 3140.0 19.3326
1173.5 3140.0 18.6986
1173.5 3140.0 18.6986
1164.0 3140.0 18.0766
1164.0 3140.0 18.0766
1153.0 3140.0 17.4266
1153.0 3140.0 17.4266
1142.3 3140.0 16.79
1142.3 3140.0 16.79
1131.0 3140.0 16.1662
1131.0 3140.0 16.1662
1119.0 3140.0 15.559
1119.0 3140.0 15.559
1100.2 3140.0 14.9353
1100.2 3140.0 14.9353
1066.9 3140.0 14.3437
1066.9 3140.0 14.3437
1006.6 3140.0 13.9556
1006.6 3140.0 13.9556
981.85 3140.0 13.757
981.85 3140.0 13.757
956.43 3140.0 13.1387
956.43 3140.0 13.1387
947.41 3140.0 12.5265
947.41 3140.0 12.5265
941.26 3140.0 11.9077
941.26 3140.0 11.9077
936.18 3140.0 11.2912
936.18 3140.0 11.2912
931.69 3140.0 10.6773
931.69 3140.0 10.6773
926.96 3140.0 10.07
926.96 3140.0 10.07
923.01 3140.0 9.46685
923.01 3140.0 9.46685
918.38 3140.0 8.86856
918.38 3140.0 8.86856
912.94 3140.0 8.27474
912.94 3140.0 8.27474
906.07 3140.0 7.68761
906.07 3140.0 7.68761
900.64 3140.0 7.30258
900.64 3140.0 7.30258
886.83 3140.0 6.73954
886.83 3140.0 6.73954
848.16 3140.0 6.20416
848.16 3140.0 6.20416
773.15 3140.0 5.88382
773.15 3140.0 5.88382
685.71 3140.0 5.60096
685.71 3140.0 5.60096
608.92 3140.0 5.35023
608.92 3140.0 5.35023
576.63 3140.0 5.23378
576.63 3140.0 5.23378
547.42 3140.0 5.12358
547.42 3140.0 5.12358
496.25 3140.0 4.92014
496.25 3140.0 4.92014
453.84 3140.0 4.73365
453.84 3140.0 4.73365
418.54 3140.0 4.56233
418.54 3140.0 4.56233
373.75 3140.0 4.32846
373.75 3140.0 4.32846
325.93 3140.0 4.05349
325.93 3140.0 4.05349
286.15 3140.0 3.81422
286.15 3140.0 3.81422
246.57 3140.0 3.55479
246.57 3140.0 3.55479
204.09 3140.0 3.16253
204.09 3140.0 3.16253
178.13 3140.0 2.71482
178.13 3140.0 2.71482
161.76 3140.0 2.31471
161.76 3140.0 2.31471
143.87 3140.0 1.86607
143.87 3140.0 1.86607
117.33 3140.0 1.41229
117.33 3140.0 1.41229
72.482 3140.0 1.06273
72.482 3140.0 1.06273
27.866 3140.0 0.834835
27.866 3140.0 0.834835

File: DUT-67Zr_DCM.aif
# generated using pymatgen
data_raw2ciftest
_operator   Volodymyr
_date   '2017-05-17 00:00:00'
_instrument   BELSORP-max-00348
_adsorptive   DCM
_temperature   298.0
_sample_mass   0.0352
_sample_id   DUT-67Zr_DCM
_material_id   DUT-67
loop_
 _adsorption_pressure
 _adsorption_p0
 _adsorption_amount
  463.14  57300.0  1.44892
  1763.2  57300.0  3.261
  2709.7  57300.0  4.68145
  3441.1  57300.0  5.08521
  4944.3  57300.0  5.46712
  8206.3  57300.0  5.79147
  12863.0  57300.0  6.04087
  18203.0  57300.0  6.2229
  23680.0  57300.0  6.34782
  30040.0  57300.0  6.45623
  36849.0  57300.0  6.55795
  44146.0  57300.0  6.66592
  52363.0  57300.0  6.83903
loop_
 _desorption_pressure
 _desorption_p0
 _desorption_amount
  47604.0  57300.0  6.77211
  47604.0  57300.0  6.77211
  42746.0  57300.0  6.71857
  42746.0  57300.0  6.71857
  38177.0  57300.0  6.66548
  38177.0  57300.0  6.66548
  33776.0  57300.0  6.61328
  33776.0  57300.0  6.61328
  29503.0  57300.0  6.55171
  29503.0  57300.0  6.55171
  25347.0  57300.0  6.48568
  25347.0  57300.0  6.48568
  21340.0  57300.0  6.41073
  21340.0  57300.0  6.41073
  17641.0  57300.0  6.29919
  17641.0  57300.0  6.29919
  13908.0  57300.0  6.16891
  13908.0  57300.0  6.16891
  11222.0  57300.0  6.04488
  11222.0  57300.0  6.04488
  8676.7  57300.0  5.89855
  8676.7  57300.0  5.89855
  6240.5  57300.0  5.70135
  6240.5  57300.0  5.70135
  4081.9  57300.0  5.36094
  4081.9  57300.0  5.36094
  2996.7  57300.0  4.95672
  2996.7  57300.0  4.95672
  2024.2  57300.0  3.87914
  2024.2  57300.0  3.87914
  1086.9  57300.0  2.46181
  1086.9  57300.0  2.46181
  597.64  57300.0  1.78
  597.64  57300.0  1.78

File: DUT-67Zr_EtOH.aif
# generated using pymatgen
data_raw2ciftest
_operator   Volodymyr
_date   '2018-05-17 00:00:00'
_instrument   BELSORP-max-00348
_adsorptive   EtOH
_temperature   298.0
_sample_mass   0.0857
_sample_id   DUT-67Zr_EtOH
_material_id   DUT-67
loop_
 _adsorption_pressure
 _adsorption_p0
 _adsorption_amount
  16.554  7890.0  1.48604
  130.67  7890.0  2.94637
  326.89  7890.0  3.92536
  466.54  7890.0  4.93308
  663.88  7890.0  6.45802
  958.83  7890.0  6.947
  1786.3  7890.0  7.38779
  3183.8  7890.0  7.7407
  5372.0  7890.0  7.99857
  6990.6  7890.0  8.15294
  7672.1  7890.0  8.34478
loop_
 _desorption_pressure
 _desorption_p0
 _desorption_amount
  5671.2  7890.0  8.04453
  5671.2  7890.0  8.04453
  3713.1  7890.0  7.85937
  3713.1  7890.0  7.85937
  2750.8  7890.0  7.69385
  2750.8  7890.0  7.69385
  2177.9  7890.0  7.55376
  2177.9  7890.0  7.55376
  1792.4  7890.0  7.43553
  1792.4  7890.0  7.43553
  1510.3  7890.0  7.33604
  1510.3  7890.0  7.33604
  1318.4  7890.0  7.24904
  1318.4  7890.0  7.24904
  1175.8  7890.0  7.17007
  1175.8  7890.0  7.17007
  1064.4  7890.0  7.09958
  1064.4  7890.0  7.09958
  856.77  7890.0  6.91621
  856.77  7890.0  6.91621
  674.18  7890.0  6.62265
  674.18  7890.0  6.62265
  490.79  7890.0  5.61703
  490.79  7890.0  5.61703
  480.33  7890.0  5.49121
  480.33  7890.0  5.49121
  320.65  7890.0  4.13492
  320.65  7890.0  4.13492
  283.04  7890.0  3.85429
  283.04  7890.0  3.85429
  280.65  7890.0  3.83698
  280.65  7890.0  3.83698
  91.149  7890.0  2.85438
  91.149  7890.0  2.85438
  82.325  7890.0  2.79718
  82.325  7890.0  2.79718

File: DUT-67Zr_hexane.aif
# generated using pymatgen
data_raw2ciftest
_operator   Volodymyr
_date   '2019-05-17 00:00:00'
_instrument   BELSORP-max-00348
_adsorptive   Hexane
_temperature   298.0
_sample_mass   0.0352
_sample_id   DUT-67Zr_hexane
_material_id   DUT-67
loop_
 _adsorption_pressure
 _adsorption_p0
 _adsorption_amount
  30.979  20000.0  0.926831
  357.7  20000.0  2.61319
  1251.2  20000.0  2.85531
  2773.9  20000.0  2.98684
  4542.2  20000.0  3.05358
  7144.7  20000.0  3.11007
  10209.0  20000.0  3.15437
  13357.0  20000.0  3.19006
  16977.0  20000.0  3.23887
  19478.0  20000.0  3.91706
loop_
 _desorption_pressure
 _desorption_p0
 _desorption_amount
  17747.0  20000.0  3.25431
  17747.0  20000.0  3.25431
  14416.0  20000.0  3.19256
  14416.0  20000.0  3.19256
  11488.0  20000.0  3.15464
  11488.0  20000.0  3.15464
  8627.9  20000.0  3.11555
  8627.9  20000.0  3.11555
  6111.2  20000.0  3.07317
  6111.2  20000.0  3.07317
  3981.9  20000.0  3.01419
  3981.9  20000.0  3.01419
  2233.6  20000.0  2.93125
  2233.6  20000.0  2.93125
  1226.4  20000.0  2.83042
  1226.4  20000.0  2.83042
  763.02  20000.0  2.74998
  763.02  20000.0  2.74998
  540.17  20000.0  2.68466
  540.17  20000.0  2.68466
  216.31  20000.0  2.44771
  216.31  20000.0  2.44771
  200.99  20000.0  2.42014
  200.99  20000.0  2.42014

File: DUT-67Zr_Methanol.aif
# generated using pymatgen
data_raw2ciftest
_operator   Volodymyr
_date   '2015-05-17 00:00:00'
_instrument   BELSORP-max-00348
_adsorptive   MeOH
_temperature   298.0
_sample_mass   0.0352
_sample_id   DUT-67Zr_Methanol
_material_id   DUT-67
loop_
 _adsorption_pressure
 _adsorption_p0
 _adsorption_amount
  67.414  16850.0  1.43901
  99.6  16850.0  1.89275
  511.71  16850.0  3.45191
  1008.8  16850.0  4.43192
  1436.8  16850.0  5.40243
  1822.6  16850.0  6.40626
  2072.7  16850.0  7.5029
  2534.2  16850.0  9.19916
  2986.3  16850.0  9.7042
  3660.4  16850.0  10.1231
  4866.3  16850.0  10.5394
  6422.3  16850.0  10.9012
  8225.9  16850.0  11.2211
  10637.0  16850.0  11.508
  13180.0  16850.0  11.7458
  15473.0  16850.0  12.0942
loop_
 _desorption_pressure
 _desorption_p0
 _desorption_amount
  13081.0  16850.0  11.7659
  13081.0  16850.0  11.7659
  10811.0  16850.0  11.5718
  10811.0  16850.0  11.5718
  8691.1  16850.0  11.3331
  8691.1  16850.0  11.3331
  6886.7  16850.0  11.0538
  6886.7  16850.0  11.0538
  5449.4  16850.0  10.7433
  5449.4  16850.0  10.7433
  4306.1  16850.0  10.4283
  4306.1  16850.0  10.4283
  3383.9  16850.0  10.041
  3383.9  16850.0  10.041
  2796.4  16850.0  9.6056
  2796.4  16850.0  9.6056
  2480.1  16850.0  9.19292
  2480.1  16850.0  9.19292
  2201.6  16850.0  8.40591
  2201.6  16850.0  8.40591
  1944.6  16850.0  6.96484
  1944.6  16850.0  6.96484
  1771.8  16850.0  6.33354
  1771.8  16850.0  6.33354
  1367.2  16850.0  5.31186
  1367.2  16850.0  5.31186
  1025.8  16850.0  4.55742
  1025.8  16850.0  4.55742
  598.83  16850.0  3.71531
  598.83  16850.0  3.71531
  192.28  16850.0  2.54707
  192.28  16850.0  2.54707
  172.28  16850.0  2.44071
  172.28  16850.0  2.44071