Folder: adsorptioninformationformat/database/DUT-23

Note: README.md
# Adsorption Information File

This repository contains the details of an universal file format for gas adsorption experiments.

## Core dictionary

The current dictionary of data items used by Adsorption Information Files can be
found in: [aifdictionary.json](/aifdictionary.json). Feel free to initiate a pull
request to add new terms.

## Developer specification

Development philosophy and steps can be found in [DEVELOPMENT.md](/DEVELOPMENT.md)

## Relevant Citations

[1] Jack D. Evans, Volodymyr Bon, Irena Senkovska, and Stefan Kaskel, ‘A Universal Standard Archive File for Adsorption Data’, *Langmuir*, **2021**.
[10.1021/acs.langmuir.1c00122](https://dx.doi.org/10.1021/acs.langmuir.1c00122)

[2] D. W. Siderius et al., ‘Best‐Practice Reporting for Porous Materials Adsorption Data’, *Angew Chem Int Ed*, **2025**.
[10.1002/anie.202513606](https://dx.doi.org/10.1002/anie.202513606)

File: NK_CU(BIPY)(BTB)_10-11_DMF-ETOH_CO2_84PKT_N2_N2 (Raw Analysis Data).txt.aif
data_data_raw2aif
_exptl_operator
_exptl_date 2010-06-10
_exptl_instrument Autosorb
_exptl_adsorptive Nitrogen
_exptl_temperature 77.35
_exptl_sample_mass 0.0279
_sample_id nk_Cubipybtb_10-11_DMF-EtOH_CO2_84Pkt_N2
_sample_material_id DUT-23

loop_
_adsorp_pressure
_adsorp_p0
_adsorp_amount
101.964 101032 5.89727
201.989 100966 9.80747
303.714 100938 16.343
404.382 100912 21.884
504.949 100912 25.4847
607.168 100881 27.7683
711.202 100870 29.2732
812.133 100829 30.4679
909.963 100770 31.3108
1013.47 100814 32.0764
1215.91 100824 33.3694
2181.3 100745 37.7862
3335.85 100786 42.9617
5039.93 100769 48.8772
6600.13 100785 51.2434
7634.97 100765 51.9864
9377.95 100733 52.8051
10621.4 100748 53.2341
12862.7 100678 53.8352
15315.9 100678 54.4571
18084.4 100702 54.929
20763.6 100744 55.2983
23384.3 100757 55.6054
25949.6 100718 55.8696
28514.6 100708 56.0991
31083.5 100754 56.3027
33619.9 100657 56.4875
36152.4 100662 56.6517
38690.3 100665 56.8025
41235.2 100713 56.9396
43774.7 100700 57.0669
46306.5 100670 57.1855
48822.4 100700 57.292
51378.1 100688 57.3952
56227.1 100713 57.5763
61259.4 100778 57.7492
66324.8 100737 57.9102
71371.7 100800 58.0593
76455.2 100776 58.1966
81490.4 100742 58.3186
86469.7 100781 58.4291
91529.2 100792 58.5425
96499 100776 58.6706
99155.9 100694 58.7976
100279 100733 59.0143

loop_
_desorp_pressure
_desorp_p0
_desorp_amount
94813 100765 58.6273
89683.3 100684 58.5011
84555.5 100713 58.3866
79519.2 100701 58.2708
74471.6 100661 58.1431
69439.8 100704 58.0022
64419.9 100789 57.8498
59429.4 100688 57.6864
54015.4 100736 57.5728
49295.4 100748 57.375
46896.8 100758 57.2469
41826.4 100801 56.9717
39358.2 100781 56.8385
36839.1 100748 56.6925
34340.1 100753 56.5342
31840.3 100794 56.3578
29342.4 100878 56.1647
26870.2 100842 55.952
24390.4 100865 55.7089
19422.4 100804 55.1134
17004.6 100902 54.745
14603.1 100844 54.2764
9943.46 100860 53.0213
8885.68 100917 52.5975
7160.25 100846 51.659
6609.84 100936 51.2503
5238.73 100950 49.309
4313.34 100920 46.4955
2867.44 101021 40.9663
1864.26 100936 36.3451
993.532 100854 32.0359