Folder: adsorptioninformationformat/database/DUT-49

Note: README.md
# Adsorption Information File

This repository contains the details of an universal file format for gas adsorption experiments.

## Core dictionary

The current dictionary of data items used by Adsorption Information Files can be
found in: [aifdictionary.json](/aifdictionary.json). Feel free to initiate a pull
request to add new terms.

## Developer specification

Development philosophy and steps can be found in [DEVELOPMENT.md](/DEVELOPMENT.md)

## Relevant Citations

[1] Jack D. Evans, Volodymyr Bon, Irena Senkovska, and Stefan Kaskel, ‘A Universal Standard Archive File for Adsorption Data’, *Langmuir*, **2021**.
[10.1021/acs.langmuir.1c00122](https://dx.doi.org/10.1021/acs.langmuir.1c00122)

[2] D. W. Siderius et al., ‘Best‐Practice Reporting for Porous Materials Adsorption Data’, *Angew Chem Int Ed*, **2025**.
[10.1002/anie.202513606](https://dx.doi.org/10.1002/anie.202513606)

File: DUT-49-SKDM017_SCD5dEtOH+act150°C22h_N277K_run1.DAT
====================
 System property Ver1.2.6
====================
"Instrument S/N:"	00218
"Vs/ml:"	27.698
=======================
 Measurement condition
=======================
"Adsorptive:"	N2
"Meas. Temp./K:"	77.40
"Molecular cross-sectional area:"	0
"Molecular weight of adsorbate:"	0.00
"Equilibrium time/sec:"	0
"Measurement mode:"	2
====================
 Sample information
====================
"Sample weight/g:"	0.01700
"Comment1:"	"SKDM017_SCD5dEtOH+act150°C22h_N277K_run1"
"Comment2:"	"Simon"
"Comment3:"	"SCD5dEtOH+act150°C22h"
"Comment4:"	"run1, Vacuum degree before measurement:1.063E-4Pa"
"as/m2 g-1:"	0.0000
"Molecular weight of adsorbent:"	0.00
====================
 Time and dead volume
====================
"Date of measurement:"	16/04/19
"Time of measurement:"	42:29:06
"Not used:"	0.0000E+0
"Average dead volume:"	3.2058E+1
"Initial dead volume/ml:"	31.805
====================
 Adsorption data
====================
"No."	"Pe/kPa"	"P0/kPa"	"Vd/ml"	"V/ml(STP) g-1"
1	6.9822E-4	102.37	31.724	20.553
2	3.4157E-3	102.43	31.649	45.353
3	8.8798E-3	102.39	31.591	70.031
4	1.4163E-2	102.33	31.541	94.263
5	1.9242E-2	102.25	31.505	118.23
6	2.4403E-2	102.30	31.469	142.02
7	2.9888E-2	102.26	31.443	165.55
8	3.6268E-2	102.20	31.415	188.81
9	4.4070E-2	102.15	31.387	211.56
10	5.3578E-2	102.09	31.366	233.71
11	6.6135E-2	102.11	31.342	255.97
12	8.1779E-2	101.99	31.329	276.87
13	1.0348E-1	101.97	31.309	297.81
14	1.3465E-1	101.95	31.294	318.74
15	1.8767E-1	101.94	31.279	342.46
16	2.5525E-1	101.93	31.262	362.37
17	3.5647E-1	101.95	31.248	383.05
18	4.6379E-1	102.01	31.235	399.29
19	5.6265E-1	102.00	31.225	412.18
20	6.7111E-1	102.01	31.218	425.95
21	7.4990E-1	102.04	31.208	435.19
22	8.7530E-1	102.10	31.197	449.09
23	9.6368E-1	102.11	31.187	456.75
24	1.0585	102.12	31.176	464.77
25	1.3345	102.14	31.169	487.18
26	1.5787	102.11	31.156	506.02
27	1.8759	102.13	31.147	527.81
28	2.0754	102.15	31.140	542.04
29	2.4011	102.18	31.132	564.24
30	2.5517	102.16	31.123	574.66
31	2.9018	102.18	31.113	597.86
32	3.0647	102.22	31.104	608.56
33	3.4352	102.19	31.098	631.52
34	3.6021	102.23	31.090	641.47
35	3.9766	102.23	31.081	663.77
36	4.0743	102.24	31.075	669.43
37	4.4977	102.29	31.067	692.64
38	4.5954	102.29	31.059	698.15
39	5.0270	102.30	31.052	721.40
40	5.4992	102.32	31.046	746.30
41	5.6173	102.26	31.038	752.14
42	6.0651	102.22	31.032	775.43
43	6.5537	102.26	31.024	800.19
44	7.0544	102.28	31.015	825.88
45	7.5592	102.23	31.009	852.12
46	8.0763	102.26	31.000	880.08
47	8.4345	102.28	30.993	901.07
48	8.5648	102.30	30.987	909.48
49	8.8946	102.32	30.977	932.03
50	9.1103	102.28	30.970	949.07
51	9.4645	102.33	30.964	982.45
52	15.303	102.32	30.984	922.50
53	16.043	102.34	30.981	957.94
54	17.757	102.34	30.982	966.97
55	18.698	102.28	30.981	971.48
56	19.716	102.34	30.981	976.02
57	20.766	102.35	30.980	980.75
58	22.008	102.23	30.975	1005.7
59	23.078	102.18	30.973	1014.9
60	25.639	102.31	30.980	1022.6
61	28.277	102.32	30.985	1030.8
62	30.801	102.39	30.993	1040.3
63	33.134	102.39	30.995	1054.9
64	34.771	102.35	30.995	1085.6
65	35.304	102.41	30.992	1108.9
66	35.894	102.42	30.985	1163.9
67	36.330	102.41	30.974	1212.0
68	36.717	102.43	30.965	1254.2
69	37.047	102.39	30.955	1291.7
70	37.344	102.44	30.947	1324.1
71	37.616	102.46	30.937	1352.7
72	37.897	102.45	30.929	1377.2
73	38.594	102.48	30.926	1431.2
74	39.172	102.48	30.919	1481.9
75	40.312	102.48	30.914	1543.5
76	41.728	102.41	30.913	1594.7
77	43.019	102.40	30.912	1625.3
78	46.418	102.35	30.917	1676.9
79	50.673	102.35	30.934	1709.1
80	54.365	102.37	30.947	1724.7
81	57.471	102.35	30.961	1732.9
82	62.678	102.35	30.981	1741.2
83	67.995	102.35	31.007	1747.0
84	73.296	102.27	31.030	1752.2
85	78.503	102.22	31.053	1757.0
86	83.677	102.26	31.079	1761.9
87	88.913	102.29	31.106	1767.2
88	94.091	102.40	31.124	1774.2
89	96.941	102.33	31.133	1779.6
0	0	0	0	0
====================
 Desorption data
====================
"No."	"Pe/kPa"	"P0/kPa"	"Vd/ml"	"V/ml(STP) g-1"
1	92.500	102.25	31.100	1774.0
2	85.172	102.22	31.057	1764.5
3	75.295	102.28	30.994	1754.2
4	65.374	102.29	30.935	1744.2
5	55.542	102.28	30.874	1732.9
6	45.763	102.30	30.815	1718.4
7	40.336	102.32	30.779	1708.5
8	35.377	102.35	30.748	1698.2
9	30.586	102.24	30.718	1685.9
10	25.818	102.32	30.687	1670.7
11	20.115	102.40	30.646	1644.7
12	18.376	102.37	30.624	1614.5
13	16.890	102.31	30.605	1550.4
14	15.445	102.30	30.590	1518.2
15	14.317	102.33	30.573	1447.1
16	13.861	102.37	30.563	1385.5
17	12.599	102.28	30.544	1327.6
18	12.290	102.33	30.534	1314.6
19	11.577	102.33	30.519	1237.5
20	11.195	102.33	30.508	1172.0
21	10.926	102.31	30.496	1114.6
22	10.759	102.30	30.486	1062.3
23	10.641	102.34	30.472	1014.7
24	10.568	102.37	30.461	969.75
25	10.507	102.35	30.451	926.91
26	10.442	102.39	30.439	884.69
27	10.405	102.34	30.428	816.47
28	10.332	102.37	30.413	748.10
29	10.169	102.26	30.389	664.87
30	8.2310	102.28	30.369	640.46
31	6.9201	102.38	30.356	635.28
32	5.8249	102.34	30.340	631.08
33	4.8316	102.28	30.327	626.64
34	3.8911	102.29	30.313	621.40
35	2.6291	102.39	30.297	611.23
36	1.7579	102.42	30.285	600.67
37	9.1845E-1	102.23	30.267	581.25
38	7.3141E-1	102.28	30.256	573.87
39	4.8768E-1	102.33	30.238	559.72
40	3.0068E-1	102.23	30.202	536.89
41	2.3375E-1	102.25	30.152	494.74
42	1.1486E-1	102.38	30.082	454.21
43	9.7830E-2	102.36	30.046	447.77
44	6.8329E-2	102.02	29.967	432.58
45	4.9352E-2	102.07	29.771	416.53
0	0	0	0	0

File: DUT-49-SKDM017_SCD5dEtOH+act150°C22h_N277K_run1.DAT.aif
data_data_raw2aif
_exptl_operator Simon
_exptl_date 2016-04-19T00:00:00
_exptl_instrument 'BEL 00218'
_exptl_adsorptive N2
_exptl_temperature 77.40
_exptl_sample_mass 0.01700
_sample_id 'SKDM017_SCD5dEtOH+act150Â°C22h_N277K_run1'
_sample_material_id DUT-49
_units_temperature K
_units_pressure kPa
_units_mass g
_units_loading cm3(STP)/g

loop_
_adsorp_pressure
_adsorp_p0
_adsorp_loading
0.69822 102370.0 0.916972
3.4157 102430.0 2.02342
8.8798 102390.0 3.12443
14.163 102330.0 4.20554
19.242 102250.0 5.27483
24.403 102300.0 6.33622
29.888 102260.0 7.38601
36.268 102200.0 8.42375
44.07 102150.0 9.43874
53.578 102090.0 10.427
66.135 102110.0 11.4201
81.779 101990.0 12.3525
103.48 101970.0 13.2868
134.65 101950.0 14.2206
187.67 101940.0 15.2788
255.25 101930.0 16.1671
356.47 101950.0 17.0898
463.79 102010.0 17.8143
562.65 102000.0 18.3894
671.11 102010.0 19.0037
749.9 102040.0 19.416
875.3 102100.0 20.0361
963.68 102110.0 20.3779
1058.5 102120.0 20.7357
1334.5 102140.0 21.7355
1578.7 102110.0 22.5761
1875.9 102130.0 23.5482
2075.4 102150.0 24.1831
2401.1 102180.0 25.1736
2551.7 102160.0 25.6384
2901.8 102180.0 26.6735
3064.7 102220.0 27.1509
3435.2 102190.0 28.1752
3602.1 102230.0 28.6192
3976.6 102230.0 29.6141
4074.3 102240.0 29.8666
4497.7 102290.0 30.9021
4595.4 102290.0 31.1479
5027.0 102300.0 32.1852
5499.2 102320.0 33.2962
5617.3 102260.0 33.5567
6065.1 102220.0 34.5958
6553.7 102260.0 35.7005
7054.4 102280.0 36.8466
7559.2 102230.0 38.0173
8076.3 102260.0 39.2647
8434.5 102280.0 40.2012
8564.8 102300.0 40.5764
8894.6 102320.0 41.5825
9110.3 102280.0 42.3427
9464.5 102330.0 43.832
15303.0 102320.0 41.1573
16043.0 102340.0 42.7385
17757.0 102340.0 43.1413
18698.0 102280.0 43.3426
19716.0 102340.0 43.5451
20766.0 102350.0 43.7561
22008.0 102230.0 44.8693
23078.0 102180.0 45.2797
25639.0 102310.0 45.6233
28277.0 102320.0 45.9891
30801.0 102390.0 46.413
33134.0 102390.0 47.0643
34771.0 102350.0 48.434
35304.0 102410.0 49.4735
35894.0 102420.0 51.9274
36330.0 102410.0 54.0733
36717.0 102430.0 55.9561
37047.0 102390.0 57.6292
37344.0 102440.0 59.0747
37616.0 102460.0 60.3507
37897.0 102450.0 61.4437
38594.0 102480.0 63.8529
39172.0 102480.0 66.1149
40312.0 102480.0 68.8632
41728.0 102410.0 71.1475
43019.0 102400.0 72.5127
46418.0 102350.0 74.8148
50673.0 102350.0 76.2514
54365.0 102370.0 76.9474
57471.0 102350.0 77.3133
62678.0 102350.0 77.6836
67995.0 102350.0 77.9424
73296.0 102270.0 78.1744
78503.0 102220.0 78.3885
83677.0 102260.0 78.6071
88913.0 102290.0 78.8436
94091.0 102400.0 79.1559
96941.0 102330.0 79.3968

loop_
_desorp_pressure
_desorp_p0
_desorp_loading
92500.0 102250.0 79.147
85172.0 102220.0 78.7231
75295.0 102280.0 78.2636
65374 102290.0 77.8174
55542.0 102280.0 77.3133
45763.0 102300.0 76.6664
40336.0 102320.0 76.2247
35377.0 102350.0 75.7651
30586.0 102240.0 75.2164
25818.0 102320.0 74.5382
20115.0 102400.0 73.3782
18376.0 102370.0 72.0309
16890.0 102310.0 69.1711
15445.0 102300.0 67.7345
14317.0 102330.0 64.5623
13861.0 102370.0 61.814
12599.0 102280.0 59.2308
12290.0 102330.0 58.6508
11577.0 102330.0 55.211
11195.0 102330.0 52.2887
10926.0 102310.0 49.7278
10759.0 102300.0 47.3945
10641.0 102340.0 45.2708
10568.0 102370.0 43.2654
10507.0 102350.0 41.3541
10442.0 102390.0 39.4704
10405.0 102340.0 36.4268
10332.0 102370.0 33.3765
10169.0 102260.0 29.6632
8231.0 102280.0 28.5741
6920.1 102380.0 28.343
5824.9 102340.0 28.1556
4831.6 102280.0 27.9575
3891.1 102290.0 27.7237
2629.1 102390.0 27.27
1757.9 102420.0 26.7989
918.45 102230.0 25.9325
731.41 102280.0 25.6032
487.68 102330.0 24.9719
300.68 102230.0 23.9533
233.75 102250.0 22.0728
114.86 102380.0 20.2646
97.83 102360.0 19.9772
68.329 102020.0 19.2995
49.352 102070.0 18.5835

File: DUT-49-SKDM019_SCDEtOH_Act.150°C_Ar_87K.DAT.aif
data_data_raw2aif
_exptl_operator Simon
_exptl_date 2017-06-02T00:00:00
_exptl_instrument 'BEL 00218'
_exptl_adsorptive Ar
_exptl_temperature 87.00
_exptl_sample_mass 0.01040
_sample_id 'SKDM019_SCDEtOH_Act.150ï¿½C_Ar_87K'
_sample_material_id DUT-49
_units_temperature K
_units_pressure kPa
_units_mass g
_units_loading cm3(STP)/g

loop_
_adsorp_pressure
_adsorp_p0
_adsorp_loading
6.8747 101000.0 0.130923
104.81 101000.0 1.77902
210.62 101000.0 4.43923
269.6 101000.0 6.96752
351.91 101000.0 9.32899
490.23 101000.0 11.4085
678.88 101000.0 13.1168
988.08 101000.0 14.8273
1290.0 101000.0 15.9557
1969.6 101000.0 17.5547
2490.5 101000.0 18.4992
3520.1 101000.0 20.1388
3695.1 101000.0 20.3917
4163.1 101000.0 21.0971
4887.5 101000.0 22.1701
5774.7 101000.0 23.5518
5913.1 101000.0 23.7731
6877.6 101000.0 25.3324
7699.7 101000.0 26.7346
7834.0 101000.0 26.9827
8656.0 101000.0 28.4514
8737.4 101000.0 28.5808
9315.3 101000.0 29.6667
9583.9 101000.0 30.1963
9718.2 101000.0 30.4363
10268.0 101000.0 31.5392
10544.0 101000.0 32.0782
10666.0 101000.0 32.3534
11220.0 101000.0 33.4715
11488.0 101000.0 34.0261
11623.0 101000.0 34.2995
12168.0 101000.0 35.4631
12437.0 101000.0 36.0641
12608.0 101000.0 36.475
13120.0 101000.0 37.6702
17845.0 101000.0 31.4143
18403.0 101000.0 31.4486
19457.0 101000.0 31.524
20425.0 101000.0 31.6057
21406.0 101000.0 31.6494
22399.0 101000.0 31.7177
23229.0 101000.0 31.7623
24316.0 101000.0 31.8515
25175.0 101000.0 31.8845
26131.0 101000.0 31.9452
27096.0 101000.0 32.001
28076.0 101000.0 32.0563
29045.0 101000.0 32.0951
30026.0 101000.0 32.1313
31674.0 101000.0 32.2517
32732.0 101000.0 32.2937
33729.0 101000.0 32.3664
34685.0 101000.0 32.4561
35650.0 101000.0 32.5288
36586.0 101000.0 32.6876
37481.0 101000.0 32.9638
38312.0 101000.0 33.4586
38983.0 101000.0 34.3981
39720.0 101000.0 39.2465
40151.0 101000.0 45.3913
40501.0 101000.0 50.4238
40814.0 101000.0 54.805
41246.0 101000.0 60.4533
41689.0 101000.0 65.0308
42357.0 101000.0 70.389
42878.0 101000.0 73.5879
43850.0 101000.0 77.9736
44957.0 101000.0 81.0386
45942.0 101000.0 83.0062
46719.0 101000.0 84.0278
47708.0 101000.0 85.0495
48799.0 101000.0 85.8481
49910.0 101000.0 86.4415
51009.0 101000.0 86.8029
52055.0 101000.0 87.1375
53076.0 101000.0 87.3829
54077.0 101000.0 87.5569
55066.0 101000.0 87.6818
56059.0 101000.0 87.8157
57044.0 101000.0 87.9138
58021.0 101000.0 87.9986
58998.0 101000.0 88.0744
59966.0 101000.0 88.1726
60951.0 101000.0 88.235
62786.0 101000.0 88.3778
63869.0 101000.0 88.4447
65704.0 101000.0 88.5964
66775.0 101000.0 88.6678
68639.0 101000.0 88.8106
69680.0 101000.0 88.9087
71569.0 101000.0 89.0158
72610.0 101000.0 89.0827
74478.0 101000.0 89.1675
75528.0 101000.0 89.2746
77396.0 101000.0 89.3772
79346.0 101000.0 89.4843
81279.0 101000.0 89.627
83212.0 101000.0 89.743
85153.0 101000.0 89.8902
87102.0 101000.0 90.0241
89040.0 101000.0 90.1713
90977.0 101000.0 90.3409
92910.0 101000.0 90.5327
94798.0 101000.0 90.7602
96707.0 101000.0 91.135

loop_
_desorp_pressure
_desorp_p0
_desorp_loading
95006.0 101000.0 91.0056
93117.0 101000.0 90.7825
91197.0 101000.0 90.555
89259.0 101000.0 90.3364
87318.0 101000.0 90.1133
85377.0 101000.0 90.0062
83436.0 101000.0 89.859
81495.0 101000.0 89.7073
79566.0 101000.0 89.5467
77624.0 101000.0 89.4263
75699.0 101000.0 89.3459
73778.0 101000.0 89.1809
71858.0 101000.0 88.9979
69920.0 101000.0 88.9266
68000.0 101000.0 88.757
66071.0 101000.0 88.6678
65000.0 101000.0 88.6232
63173.0 101000.0 88.4849
62119.0 101000.0 88.4135
60279.0 101000.0 88.2707
59217.0 101000.0 88.186
57390.0 101000.0 88.0655
56336.0 101000.0 87.9852
54509.0 101000.0 87.8424
53438.0 101000.0 87.771
51619.0 101000.0 87.5792
50549.0 101000.0 87.5123
49568.0 101000.0 87.4453
47773.0 101000.0 87.2803
46386.0 101000.0 87.1509
44786.0 101000.0 86.9992
43179.0 101000.0 86.843
41571.0 101000.0 86.6735
40004.0 101000.0 86.4817
38942.0 101000.0 86.3523
37978.0 101000.0 86.2407
37017.0 101000.0 86.1158
36053.0 101000.0 85.9775
35088.0 101000.0 85.8571
34136.0 101000.0 85.7232
33188.0 101000.0 85.5358
32276 101000.0 85.286
31458.0 101000.0 84.8175
30746.0 101000.0 83.9609
28353.0 101000.0 78.9016
27783.0 101000.0 77.6077
27352.0 101000.0 76.6887
26721.0 101000.0 75.5376
26286.0 101000.0 74.8327
26168.0 101000.0 74.6185
25443.0 101000.0 73.6816
24463.0 101000.0 72.5529
23396.0 101000.0 71.6516
23217.0 101000.0 71.5178
22330.0 101000.0 71.0226
21390.0 101000.0 70.5006
21252.0 101000.0 70.4247
20413.0 101000.0 69.9474
20291.0 101000.0 69.8492
19526.0 101000.0 69.2112
19388.0 101000.0 69.0327
18826.0 101000.0 67.8906
18602.0 101000.0 67.1321
18228.0 101000.0 65.0709
18024.0 101000.0 63.5853
17878.0 101000.0 62.394
17772.0 101000.0 61.3947
17695.0 101000.0 60.5381
17544.0 101000.0 58.6732
17373.0 101000.0 56.4558
17231.0 101000.0 54.6801
17109.0 101000.0 53.1543
17011.0 101000.0 51.8158
16921.0 101000.0 50.6291
16848.0 101000.0 49.5672
16779.0 101000.0 48.6571
16718.0 101000.0 47.8362
16612.0 101000.0 45.9222
16453.0 101000.0 43.6
16327 101000.0 41.7373
16213 101000.0 40.1231
16103 101000.0 38.6865
16014.0 101000.0 37.386
15916.0 101000.0 36.2947
15831.0 101000.0 35.352
15749.0 101000.0 34.5409
15420.0 101000.0 32.4074
14862.0 101000.0 31.4937
13560.0 101000.0 31.1479
12571.0 101000.0 30.9815
11590.0 101000.0 30.8397
10618.0 101000.0 30.7089
9665.3 101000.0 30.547
6877.6 101000.0 30.0286
6613.1 101000.0 29.9478
4810.2 101000.0 29.2821
2547.5 101000.0 26.6762
1574.8 101000.0 24.4271
622.26 101000.0 22.4953
301.22 101000.0 20.8664
187.21 101000.0 19.341
136.8 101000.0 17.8357
110.42 101000.0 16.3871
93.515 101000.0 14.954
86.605 101000.0 14.2099
80.589 101000.0 13.4528
75.183 101000.0 12.7055
70.346 101000.0 11.9715
65.793 101000.0 11.2336
61.485 101000.0 10.4988
57.257 101000.0 9.77737
53.152 101000.0 9.05282
49.047 101000.0 8.33943
45.022 101000.0 7.63541
40.998 101000.0 6.93272
36.771 101000.0 6.23316
32.544 101000.0 5.53672
28.072 101000.0 4.84385
23.561 101000.0 4.15785
19.089 101000.0 3.47894

File: DUT-49_nbutane_273K_vielePunkte.aif
# generated using pymatgen
data_raw2ciftest
_operator   Simon
_date   '2004-07-15 00:00:00'
_instrument   BELSORP-max-00349
_adsorptive   C4H10
_temperature   273.15
_sample_mass   0.0049
_sample_id   DUT-49_nbutane_273K_vielePunkte
_material_id   DUT-49
loop_
 _adsorption_pressure
 _adsorption_p0
 _adsorption_amount
  2.5129  101330.0  -0.000182341
  43.174  101330.0  0.0806817
  86.515  101330.0  0.17034
  127.57  101330.0  0.263277
  243.04  101330.0  0.588248
  321.36  101330.0  0.868877
  423.82  101330.0  1.22468
  520.91  101330.0  1.52142
  709.85  101330.0  1.92549
  936.94  101330.0  2.26135
  1038.7  101330.0  2.38512
  1718.2  101330.0  2.77153
  2223.5  101330.0  3.15499
  2335.4  101330.0  3.23949
  2854.9  101330.0  3.56322
  3457.1  101330.0  3.8865
  4090.2  101330.0  4.21152
  4686.6  101330.0  4.49674
  5321.3  101330.0  4.78005
  5915.3  101330.0  5.02186
  6546.8  101330.0  5.27974
  7140.8  101330.0  5.52512
  7754.7  101330.0  5.78032
  8350.8  101330.0  6.03998
  8699.3  101330.0  6.20014
  8997.3  101330.0  6.35139
  9305.1  101330.0  6.49817
  9602.3  101330.0  6.64763
  9908.5  101330.0  6.82475
  10031.0  101330.0  6.90952
  10230.0  101330.0  7.01481
  10681.0  101330.0  7.29901
  11005.0  101330.0  7.8732
  11164.0  101330.0  8.12171
  12202.0  101330.0  8.40055
  13312.0  101330.0  8.4532
  14481.0  101330.0  8.50094
  15493.0  101330.0  8.54421
  16519.0  101330.0  8.57411
  17517.0  101330.0  8.61247
  18512.0  101330.0  8.64237
  19504.0  101330.0  8.68252
  20530.0  101330.0  8.71375
  21516.0  101330.0  8.75658
  22443.0  101330.0  8.8061
  23459.0  101330.0  8.85072
  24476.0  101330.0  8.88463
  25482.0  101330.0  8.91318
  26502.0  101330.0  8.95021
  27511.0  101330.0  8.98992
  28524.0  101330.0  9.02382
  29541.0  101330.0  9.06665
  30559.0  101330.0  9.09967
  32586.0  101330.0  9.16436
  35605.0  101330.0  9.26653
  37681.0  101330.0  9.34996
  40676.0  101330.0  9.46328
  42738.0  101330.0  9.55028
  45741.0  101330.0  9.6703
  47807.0  101330.0  9.768
  50763.0  101330.0  9.95315
  52751.0  101330.0  10.1718
  55489.0  101330.0  10.9396
  55859.0  101330.0  11.106
  57626.0  101330.0  11.6383
  57861.0  101330.0  11.8435
  60272.0  101330.0  13.0316
  60749.0  101330.0  13.4849
  64194.0  101330.0  16.6106
  65492  101330.0  17.5649
  65840.0  101330.0  17.9807
  69598.0  101330.0  20.5434
  70728.0  101330.0  21.2175
  70992.0  101330.0  21.4959
  75282.0  101330.0  23.0807
  76008.0  101330.0  23.4733
  80647.0  101330.0  24.5927
  81178.0  101330.0  24.8412
  85977.0  101330.0  25.5626
  86289.0  101330.0  25.7437
  91145.0  101330.0  26.3496
  96238.0  101330.0  26.9524
  96437.0  101330.0  27.1089
loop_
 _desorption_pressure
 _desorption_p0
 _desorption_amount
  96088.0  101330.0  27.1821
  96088.0  101330.0  27.1821
  91075.0  101330.0  26.9751
  91075.0  101330.0  26.9751
  86028.0  101330.0  26.7422
  86028.0  101330.0  26.7422
  80977.0  101330.0  26.4852
  80977.0  101330.0  26.4852
  75925.0  101330.0  26.2443
  75925.0  101330.0  26.2443
  70877.0  101330.0  26.0025
  70877.0  101330.0  26.0025
  65817.0  101330.0  25.7549
  65817.0  101330.0  25.7549
  60762.0  101330.0  25.5108
  60762.0  101330.0  25.5108
  55700.0  101330.0  25.2717
  55700.0  101330.0  25.2717
  50642.0  101330.0  25.0232
  50642.0  101330.0  25.0232
  45594.0  101330.0  24.743
  45594.0  101330.0  24.743
  40531.0  101330.0  24.4535
  40531.0  101330.0  24.4535
  35450.0  101330.0  24.1162
  35450.0  101330.0  24.1162
  30391.0  101330.0  23.7329
  30391.0  101330.0  23.7329
  28266.0  101330.0  23.5469
  28266.0  101330.0  23.5469
  26338.0  101330.0  23.2792
  26338.0  101330.0  23.2792
  24328.0  101330.0  22.8884
  24328.0  101330.0  22.8884
  22471.0  101330.0  22.1397
  22471.0  101330.0  22.1397
  22330.0  101330.0  21.7146
  22330.0  101330.0  21.7146
  22212.0  101330.0  21.4629
  22212.0  101330.0  21.4629
  21200.0  101330.0  19.6703
  21200.0  101330.0  19.6703
  20384.0  101330.0  19.0452
  20384.0  101330.0  19.0452
  20263.0  101330.0  18.8512
  20263.0  101330.0  18.8512
  18447.0  101330.0  18.3243
  18447.0  101330.0  18.3243
  18253.0  101330.0  17.933
  18253.0  101330.0  17.933
  17478.0  101330.0  15.4524
  17478.0  101330.0  15.4524
  17122.0  101330.0  13.7909
  17122.0  101330.0  13.7909
  16871.0  101330.0  12.4967
  16871.0  101330.0  12.4967
  16611.0  101330.0  11.3599
  16611.0  101330.0  11.3599
  16410.0  101330.0  10.6286
  16410.0  101330.0  10.6286
  16299.0  101330.0  10.1459
  16299.0  101330.0  10.1459
  16184  101330.0  9.71268
  16184  101330.0  9.71268
  14483.0  101330.0  8.90693
  14483.0  101330.0  8.90693
  14154.0  101330.0  8.85295
  14154.0  101330.0  8.85295
  12135.0  101330.0  8.76193
  12135.0  101330.0  8.76193
  10631.0  101330.0  8.67404
  10631.0  101330.0  8.67404
  10120.0  101330.0  8.64014
  10120.0  101330.0  8.64014
  10007.0  101330.0  8.61694
  10007.0  101330.0  8.61694
  9803.4  101330.0  8.59909
  9803.4  101330.0  8.59909
  9207.8  101330.0  8.5286
  9207.8  101330.0  8.5286
  8281.2  101330.0  8.46346
  8281.2  101330.0  8.46346
  7388.3  101330.0  8.36754
  7388.3  101330.0  8.36754
  6465.0  101330.0  8.21272
  6465.0  101330.0  8.21272
  5276.5  101330.0  7.9031
  5276.5  101330.0  7.9031
  5192.7  101330.0  7.78888
  5192.7  101330.0  7.78888
  4016.1  101330.0  7.66396
  4016.1  101330.0  7.66396