Folder: adsorptioninformationformat/database/DUT-75

Note: README.md
# Adsorption Information File

This repository contains the details of an universal file format for gas adsorption experiments.

## Core dictionary

The current dictionary of data items used by Adsorption Information Files can be
found in: [aifdictionary.json](/aifdictionary.json). Feel free to initiate a pull
request to add new terms.

## Developer specification

Development philosophy and steps can be found in [DEVELOPMENT.md](/DEVELOPMENT.md)

## Relevant Citations

[1] Jack D. Evans, Volodymyr Bon, Irena Senkovska, and Stefan Kaskel, ‘A Universal Standard Archive File for Adsorption Data’, *Langmuir*, **2021**.
[10.1021/acs.langmuir.1c00122](https://dx.doi.org/10.1021/acs.langmuir.1c00122)

[2] D. W. Siderius et al., ‘Best‐Practice Reporting for Porous Materials Adsorption Data’, *Angew Chem Int Ed*, **2025**.
[10.1002/anie.202513606](https://dx.doi.org/10.1002/anie.202513606)

File: US_540_DUT75_N2 (Raw Analysis Data).txt.aif
data_data_raw2aif
_exptl_operator Uli
_exptl_date 2012-11-30
_exptl_instrument Autosorb
_exptl_adsorptive Nitrogen
_exptl_temperature 77.3
_exptl_sample_mass 0.0539
_sample_id US_540_DUT75_N2
_sample_material_id DUT-75

loop_
_adsorp_pressure
_adsorp_p0
_adsorp_amount
50.0344 100561 11.0356
75.2165 100561 12.3771
100.457 100561 13.8296
201.145 100561 17.7407
304 100561 19.785
402.975 100561 21.2383
503.644 100561 22.3863
603.978 100561 23.1879
708.717 100561 24.2691
811.201 100561 24.9395
908.669 100561 25.9345
1011.55 100561 26.5531
1032.77 100561 26.6964
1385.73 100561 28.6678
1640.89 100561 29.9762
2169.05 100561 31.7635
2556.59 100561 32.7831
3046.07 100561 33.884
3334.42 100561 34.4629
3656.19 100561 35.0591
4006.28 100561 35.6623
4376.88 100561 36.2662
4771.94 100561 36.8609
5182.77 100561 37.4407
5607.74 100561 38
6042.85 100561 38.5357
6477.8 100561 39.0506
6743.1 100561 39.5922
7160.65 100561 40.129
7571.49 100561 40.6546
7945.19 100561 41.1824
8276.89 100561 41.7278
8568.2 100561 42.3072
8998.13 100561 43.3728
9350.73 100561 44.4301
9699.1 100561 45.4747
10177 100561 46.57
10523.4 100561 47.0955
11070.3 100561 47.6026
11750 100561 47.9595
12462.8 100561 48.1973
13075.8 100561 48.3544
13581 100561 48.4647
14026.3 100561 48.5519
14440.3 100561 48.6246
14835.3 100561 48.6922
15228.6 100561 48.7547
15611.9 100561 48.8142
15998.4 100561 48.8704
16390.5 100561 48.9238
16768.6 100561 48.975
17151.7 100561 49.0231
17532.6 100561 49.0699
17914.4 100561 49.1147
18298.4 100561 49.1595
18679.3 100561 49.2015
19061 100561 49.2419
19188 100561 49.3557
19731.8 100561 49.4256
20165.7 100561 49.475
20566.3 100561 49.5162
20956.5 100561 49.5543
21237.9 100561 49.5815
21594.6 100561 49.6142
21973.4 100561 49.6479
22350.7 100561 49.6813
22727.9 100561 49.7132
23108.4 100561 49.7446
23691.7 100561 49.7906
25866.3 100561 49.9525
28338.9 100561 50.1222
30888.5 100561 50.2795
33439.9 100561 50.4232
35991.2 100561 50.5532
38525.5 100561 50.675
41063 100561 50.7859
43597.8 100561 50.8913
46124.9 100561 50.9873
48654.1 100561 51.0793
51175.8 100561 51.167
53705.2 100561 51.2496
56214.5 100561 51.3269
58744.9 100561 51.402
61259.2 100561 51.4747
63782.8 100561 51.5427
66290.3 100561 51.6082
68802.4 100561 51.6713
71334.3 100561 51.7338
73850.2 100561 51.7925
76359.1 100561 51.8491
78883.8 100561 51.9049
81397.9 100561 51.9592
83910.7 100561 52.012
86408 100561 52.0628
88937.6 100561 52.1145
91445.7 100561 52.1633
93981.9 100561 52.2043
96493.8 100561 52.2507
98971.4 100561 52.3078
100406 100561 52.6011

loop_
_desorp_pressure
_desorp_p0
_desorp_amount
98096.1 100561 52.2879
95170.3 100561 52.226
89609.3 100561 52.1273
84519.3 100561 52.024
79476.1 100561 51.9172
74451.4 100561 51.8058
69437.4 100561 51.6862
64227.1 100561 51.5542
59323.9 100561 51.435
54365.8 100561 51.2798
49368.1 100561 51.1067
44376.6 100561 50.9207
39382.9 100561 50.7118
34397.7 100561 50.4715
29440.4 100561 50.1893
24523.7 100561 49.8518
19683.5 100561 49.4175
18707 100561 49.2711
18107.2 100561 49.1957
17387.8 100561 49.1061
16656.2 100561 49.0095
15928.7 100561 48.9026
15198.1 100561 48.7869
14472.1 100561 48.6607
13758.6 100561 48.5215
13053.9 100561 48.3638
12384.2 100561 48.1785
11754.4 100561 47.955
11180.9 100561 47.656
10688.6 100561 47.2665
10289.1 100561 46.7485
9543.82 100561 45.0624