Folder: adsorptioninformationformat/database/DUT-49 (part 2)

File: DUT-49_nbutane_298 K_viele Punkte_hohe masse.DAT.aif
data_data_raw2aif
_exptl_operator Simon
_exptl_date 2015-07-05
_exptl_instrument BELSORP-max-00349
_exptl_adsorptive C4H10
_exptl_temperature 273.15
_exptl_sample_mass 0.027
_sample_id DUT-49_nbutane_298K_vielePunkte_hohemasse
_sample_material_id DUT-49

loop_
_adsorp_pressure
_adsorp_p0
_adsorp_amount
88.035 101330.0 0.12017
211.87 101330.0 0.271415
369.54 101330.0 0.446239
548.2 101330.0 0.629651
742.99 101330.0 0.817659
949.6 101330.0 1.00455
1122.6 101330.0 1.14906
1826.9 101330.0 1.50067
2262.1 101330.0 1.72218
3095.1 101330.0 2.06001
3595.5 101330.0 2.22901
4170.7 101330.0 2.40435
4796.9 101330.0 2.5804
5419.8 101330.0 2.73945
6055.7 101330.0 2.89716
6660.3 101330.0 3.04261
7294.2 101330.0 3.18524
7901.7 101330.0 3.31721
8533.1 101330.0 3.45003
8916.2 101330.0 3.53422
9478.9 101330.0 3.6495
9845.7 101330.0 3.72432
10257.0 101330.0 3.80427
10825.0 101330.0 3.91421
11351.0 101330.0 4.01463
12236.0 101330.0 4.17346
13215.0 101330.0 4.34925
14221.0 101330.0 4.52708
15236.0 101330.0 4.70465
16251 101330.0 4.88043
17256.0 101330.0 5.05934
18262.0 101330.0 5.24003
19267.0 101330.0 5.42518
20272.0 101330.0 5.60989
21646.0 101330.0 5.88427
22376.0 101330.0 6.03418
23301.0 101330.0 6.2278
24622.0 101330.0 6.52182
25350.0 101330.0 6.69938
26596.0 101330.0 7.0273
27610.0 101330.0 7.33426
28570.0 101330.0 7.66753
29503.0 101330.0 8.05166
30394.0 101330.0 8.51477
31217.0 101330.0 9.07736
31519.0 101330.0 9.42491
39145.0 101330.0 8.17837
40918.0 101330.0 8.20291
42978.0 101330.0 8.23235
45958.0 101330.0 8.27117
48011.0 101330.0 8.29928
51030.0 101330.0 8.33809
53116.0 101330.0 8.36709
56105.0 101330.0 8.40234
58141.0 101330.0 8.42866
61169.0 101330.0 8.46435
66203.0 101330.0 8.517
71267.0 101330.0 8.57187
76334.0 101330.0 8.62675
81402.0 101330.0 8.68252
86516.0 101330.0 8.74141
91532.0 101330.0 8.80075
96622.0 101330.0 8.86098

loop_
_desorp_pressure
_desorp_p0
_desorp_amount
95846.0 101330.0 8.87704
95846.0 101330.0 8.87704
90826.0 101330.0 8.85473
90826.0 101330.0 8.85473
85788.0 101330.0 8.82529
85788.0 101330.0 8.82529
80737.0 101330.0 8.79004
80737.0 101330.0 8.79004
75681.0 101330.0 8.75078
75681.0 101330.0 8.75078
70637.0 101330.0 8.70661
70637.0 101330.0 8.70661
65580.0 101330.0 8.66244
65580.0 101330.0 8.66244
60530.0 101330.0 8.61158
60530.0 101330.0 8.61158
55472.0 101330.0 8.55938
55472.0 101330.0 8.55938
50418.0 101330.0 8.50361
50418.0 101330.0 8.50361
45364.0 101330.0 8.44517
45364.0 101330.0 8.44517
40304.0 101330.0 8.37869
40304.0 101330.0 8.37869
35255.0 101330.0 8.30418
35255.0 101330.0 8.30418
31175.0 101330.0 8.22745
31175.0 101330.0 8.22745
30187.0 101330.0 8.20603
30187.0 101330.0 8.20603
29178.0 101330.0 8.18328
29178.0 101330.0 8.18328
28156.0 101330.0 8.16097
28156.0 101330.0 8.16097
27143.0 101330.0 8.14089
27143.0 101330.0 8.14089
26133.0 101330.0 8.11993
26133.0 101330.0 8.11993
25125.0 101330.0 8.09628
25125.0 101330.0 8.09628
24111.0 101330.0 8.07308
24111.0 101330.0 8.07308
23106.0 101330.0 8.05256
23106.0 101330.0 8.05256
22097.0 101330.0 8.02802
22097.0 101330.0 8.02802
20117.0 101330.0 7.97894
20117.0 101330.0 7.97894
18099.0 101330.0 7.92451
18099.0 101330.0 7.92451
16091 101330.0 7.86517
16091 101330.0 7.86517
14084.0 101330.0 7.79424
14084.0 101330.0 7.79424
12095.0 101330.0 7.71081
12095.0 101330.0 7.71081
10562.0 101330.0 7.63451
10562.0 101330.0 7.63451
9981.3 101330.0 7.59659
9981.3 101330.0 7.59659
9539.6 101330.0 7.5667
9539.6 101330.0 7.5667
8977.3 101330.0 7.52699
8977.3 101330.0 7.52699
8121.1 101330.0 7.46364
8121.1 101330.0 7.46364
7231.1 101330.0 7.39002
7231.1 101330.0 7.39002
6351.7 101330.0 7.3057
6351.7 101330.0 7.3057
5211.8 101330.0 7.1732
5211.8 101330.0 7.1732
3860.1 101330.0 6.94923
3860.1 101330.0 6.94923
2365.9 101330.0 6.49505
2365.9 101330.0 6.49505
1297.3 101330.0 5.88918
1297.3 101330.0 5.88918
1002.1 101330.0 5.46578
1002.1 101330.0 5.46578
732.06 101330.0 4.82734
732.06 101330.0 4.82734
681.81 101330.0 4.64665
681.81 101330.0 4.64665
561.52 101330.0 4.14803
561.52 101330.0 4.14803
462.69 101330.0 3.60516
462.69 101330.0 3.60516
392.64 101330.0 3.13991
392.64 101330.0 3.13991
327.9 101330.0 2.66173
327.9 101330.0 2.66173
296.27 101330.0 2.4147
296.27 101330.0 2.4147
233.81 101330.0 1.93375
233.81 101330.0 1.93375
173.44 101330.0 1.46988
173.44 101330.0 1.46988
111.83 101330.0 0.990854
111.83 101330.0 0.990854
99.794 101330.0 0.891541
99.794 101330.0 0.891541